subj,trial,block,date,stim,stim_order,response,rt,age,sex,param_index,segment_time,pitch
21011968,0,0,2024-02-28T17:28:59.872Z,male_vraiment_flat_174.wav,0,True,6654,56,M,0,0.000000,12.449350
21011968,0,0,2024-02-28T17:28:59.872Z,male_vraiment_flat_174.wav,0,True,6654,56,M,1,0.071043,17.986555
21011968,0,0,2024-02-28T17:28:59.872Z,male_vraiment_flat_174.wav,0,True,6654,56,M,2,0.142086,-72.720888
21011968,0,0,2024-02-28T17:28:59.872Z,male_vraiment_flat_174.wav,0,True,6654,56,M,3,0.213129,41.369679
21011968,0,0,2024-02-28T17:28:59.872Z,male_vraiment_flat_174.wav,0,True,6654,56,M,4,0.284172,-146.787018
21011968,0,0,2024-02-28T17:28:59.872Z,male_vraiment_flat_174.wav,0,True,6654,56,M,5,0.355215,3.271800
21011968,0,0,2024-02-28T17:28:59.872Z,male_vraiment_flat_174.wav,0,True,6654,56,M,6,0.426259,26.686198
21011968,0,0,2024-02-28T17:28:59.872Z,male_vraiment_flat_21.wav,1,False,6654,56,M,0,0.000000,84.422922
21011968,0,0,2024-02-28T17:28:59.872Z,male_vraiment_flat_21.wav,1,False,6654,56,M,1,0.071043,34.734306
21011968,0,0,2024-02-28T17:28:59.872Z,male_vraiment_flat_21.wav,1,False,6654,56,M,2,0.142086,84.348012
21011968,0,0,2024-02-28T17:28:59.872Z,male_vraiment_flat_21.wav,1,False,6654,56,M,3,0.213129,-112.005491
21011968,0,0,2024-02-28T17:28:59.872Z,male_vraiment_flat_21.wav,1,False,6654,56,M,4,0.284172,147.407394
21011968,0,0,2024-02-28T17:28:59.872Z,male_vraiment_flat_21.wav,1,False,6654,56,M,5,0.355215,-6.622355
21011968,0,0,2024-02-28T17:28:59.872Z,male_vraiment_flat_21.wav,1,False,6654,56,M,6,0.426259,125.674103
21011968,1,0,2024-02-28T17:28:59.872Z,male_vraiment_flat_88.wav,0,True,1921,56,M,0,0.000000,-104.432443
21011968,1,0,2024-02-28T17:28:59.872Z,male_vraiment_flat_88.wav,0,True,1921,56,M,1,0.071043,71.901933
21011968,1,0,2024-02-28T17:28:59.872Z,male_vraiment_flat_88.wav,0,True,1921,56,M,2,0.142086,62.017491
21011968,1,0,2024-02-28T17:28:59.872Z,male_vraiment_flat_88.wav,0,True,1921,56,M,3,0.213129,-148.109936
21011968,1,0,2024-02-28T17:28:59.872Z,male_vraiment_flat_88.wav,0,True,1921,56,M,4,0.284172,21.087169
21011968,1,0,2024-02-28T17:28:59.872Z,male_vraiment_flat_88.wav,0,True,1921,56,M,5,0.355215,98.793360
21011968,1,0,2024-02-28T17:28:59.872Z,male_vraiment_flat_88.wav,0,True,1921,56,M,6,0.426259,84.960800
21011968,1,0,2024-02-28T17:28:59.872Z,male_vraiment_flat_111.wav,1,False,1921,56,M,0,0.000000,-76.898484
21011968,1,0,2024-02-28T17:28:59.872Z,male_vraiment_flat_111.wav,1,False,1921,56,M,1,0.071043,128.576704
21011968,1,0,2024-02-28T17:28:59.872Z,male_vraiment_flat_111.wav,1,False,1921,56,M,2,0.142086,84.475821
21011968,1,0,2024-02-28T17:28:59.872Z,male_vraiment_flat_111.wav,1,False,1921,56,M,3,0.213129,13.962019
21011968,1,0,2024-02-28T17:28:59.872Z,male_vraiment_flat_111.wav,1,False,1921,56,M,4,0.284172,80.950376
21011968,1,0,2024-02-28T17:28:59.872Z,male_vraiment_flat_111.wav,1,False,1921,56,M,5,0.355215,105.627204
21011968,1,0,2024-02-28T17:28:59.872Z,male_vraiment_flat_111.wav,1,False,1921,56,M,6,0.426259,86.259873
21011968,2,0,2024-02-28T17:28:59.872Z,male_vraiment_flat_53.wav,0,False,2821,56,M,0,0.000000,12.794375
21011968,2,0,2024-02-28T17:28:59.872Z,male_vraiment_flat_53.wav,0,False,2821,56,M,1,0.071043,72.488609
21011968,2,0,2024-02-28T17:28:59.872Z,male_vraiment_flat_53.wav,0,False,2821,56,M,2,0.142086,82.753367
21011968,2,0,2024-02-28T17:28:59.872Z,male_vraiment_flat_53.wav,0,False,2821,56,M,3,0.213129,-11.724600
21011968,2,0,2024-02-28T17:28:59.872Z,male_vraiment_flat_53.wav,0,False,2821,56,M,4,0.284172,8.499299
21011968,2,0,2024-02-28T17:28:59.872Z,male_vraiment_flat_53.wav,0,False,2821,56,M,5,0.355215,84.468722
21011968,2,0,2024-02-28T17:28:59.872Z,male_vraiment_flat_53.wav,0,False,2821,56,M,6,0.426259,-88.580062
21011968,2,0,2024-02-28T17:28:59.872Z,male_vraiment_flat_194.wav,1,True,2821,56,M,0,0.000000,104.124735
21011968,2,0,2024-02-28T17:28:59.872Z,male_vraiment_flat_194.wav,1,True,2821,56,M,1,0.071043,-92.067392
21011968,2,0,2024-02-28T17:28:59.872Z,male_vraiment_flat_194.wav,1,True,2821,56,M,2,0.142086,-108.808255
21011968,2,0,2024-02-28T17:28:59.872Z,male_vraiment_flat_194.wav,1,True,2821,56,M,3,0.213129,99.267416
21011968,2,0,2024-02-28T17:28:59.872Z,male_vraiment_flat_194.wav,1,True,2821,56,M,4,0.284172,-26.685302
21011968,2,0,2024-02-28T17:28:59.872Z,male_vraiment_flat_194.wav,1,True,2821,56,M,5,0.355215,97.824367
21011968,2,0,2024-02-28T17:28:59.872Z,male_vraiment_flat_194.wav,1,True,2821,56,M,6,0.426259,-69.402109
21011968,3,0,2024-02-28T17:28:59.872Z,male_vraiment_flat_102.wav,0,False,2560,56,M,0,0.000000,-40.599677
21011968,3,0,2024-02-28T17:28:59.872Z,male_vraiment_flat_102.wav,0,False,2560,56,M,1,0.071043,73.648850
21011968,3,0,2024-02-28T17:28:59.872Z,male_vraiment_flat_102.wav,0,False,2560,56,M,2,0.142086,15.923898
21011968,3,0,2024-02-28T17:28:59.872Z,male_vraiment_flat_102.wav,0,False,2560,56,M,3,0.213129,-109.098836
21011968,3,0,2024-02-28T17:28:59.872Z,male_vraiment_flat_102.wav,0,False,2560,56,M,4,0.284172,134.536605
21011968,3,0,2024-02-28T17:28:59.872Z,male_vraiment_flat_102.wav,0,False,2560,56,M,5,0.355215,127.784516
21011968,3,0,2024-02-28T17:28:59.872Z,male_vraiment_flat_102.wav,0,False,2560,56,M,6,0.426259,-136.569602
21011968,3,0,2024-02-28T17:28:59.872Z,male_vraiment_flat_39.wav,1,True,2560,56,M,0,0.000000,111.266402
21011968,3,0,2024-02-28T17:28:59.872Z,male_vraiment_flat_39.wav,1,True,2560,56,M,1,0.071043,99.799676
21011968,3,0,2024-02-28T17:28:59.872Z,male_vraiment_flat_39.wav,1,True,2560,56,M,2,0.142086,45.272629
21011968,3,0,2024-02-28T17:28:59.872Z,male_vraiment_flat_39.wav,1,True,2560,56,M,3,0.213129,-145.406877
21011968,3,0,2024-02-28T17:28:59.872Z,male_vraiment_flat_39.wav,1,True,2560,56,M,4,0.284172,46.363124
21011968,3,0,2024-02-28T17:28:59.872Z,male_vraiment_flat_39.wav,1,True,2560,56,M,5,0.355215,90.908213
21011968,3,0,2024-02-28T17:28:59.872Z,male_vraiment_flat_39.wav,1,True,2560,56,M,6,0.426259,-13.802222
21011968,4,0,2024-02-28T17:28:59.872Z,male_vraiment_flat_52.wav,0,True,2515,56,M,0,0.000000,-133.801400
21011968,4,0,2024-02-28T17:28:59.872Z,male_vraiment_flat_52.wav,0,True,2515,56,M,1,0.071043,34.189717
21011968,4,0,2024-02-28T17:28:59.872Z,male_vraiment_flat_52.wav,0,True,2515,56,M,2,0.142086,-145.714669
21011968,4,0,2024-02-28T17:28:59.872Z,male_vraiment_flat_52.wav,0,True,2515,56,M,3,0.213129,1.717896
21011968,4,0,2024-02-28T17:28:59.872Z,male_vraiment_flat_52.wav,0,True,2515,56,M,4,0.284172,99.036025
21011968,4,0,2024-02-28T17:28:59.872Z,male_vraiment_flat_52.wav,0,True,2515,56,M,5,0.355215,56.473042
21011968,4,0,2024-02-28T17:28:59.872Z,male_vraiment_flat_52.wav,0,True,2515,56,M,6,0.426259,113.578937
21011968,4,0,2024-02-28T17:28:59.872Z,male_vraiment_flat_197.wav,1,False,2515,56,M,0,0.000000,7.012988
21011968,4,0,2024-02-28T17:28:59.872Z,male_vraiment_flat_197.wav,1,False,2515,56,M,1,0.071043,64.551185
21011968,4,0,2024-02-28T17:28:59.872Z,male_vraiment_flat_197.wav,1,False,2515,56,M,2,0.142086,-65.392523
21011968,4,0,2024-02-28T17:28:59.872Z,male_vraiment_flat_197.wav,1,False,2515,56,M,3,0.213129,18.180118
21011968,4,0,2024-02-28T17:28:59.872Z,male_vraiment_flat_197.wav,1,False,2515,56,M,4,0.284172,-30.775220
21011968,4,0,2024-02-28T17:28:59.872Z,male_vraiment_flat_197.wav,1,False,2515,56,M,5,0.355215,95.802549
21011968,4,0,2024-02-28T17:28:59.872Z,male_vraiment_flat_197.wav,1,False,2515,56,M,6,0.426259,-129.373786
21011968,5,0,2024-02-28T17:28:59.872Z,male_vraiment_flat_151.wav,0,True,2714,56,M,0,0.000000,-67.748525
21011968,5,0,2024-02-28T17:28:59.872Z,male_vraiment_flat_151.wav,0,True,2714,56,M,1,0.071043,54.361913
21011968,5,0,2024-02-28T17:28:59.872Z,male_vraiment_flat_151.wav,0,True,2714,56,M,2,0.142086,-48.392138
21011968,5,0,2024-02-28T17:28:59.872Z,male_vraiment_flat_151.wav,0,True,2714,56,M,3,0.213129,35.257299
21011968,5,0,2024-02-28T17:28:59.872Z,male_vraiment_flat_151.wav,0,True,2714,56,M,4,0.284172,30.428121
21011968,5,0,2024-02-28T17:28:59.872Z,male_vraiment_flat_151.wav,0,True,2714,56,M,5,0.355215,28.910983
21011968,5,0,2024-02-28T17:28:59.872Z,male_vraiment_flat_151.wav,0,True,2714,56,M,6,0.426259,-22.593444
21011968,5,0,2024-02-28T17:28:59.872Z,male_vraiment_flat_169.wav,1,False,2714,56,M,0,0.000000,117.441793
21011968,5,0,2024-02-28T17:28:59.872Z,male_vraiment_flat_169.wav,1,False,2714,56,M,1,0.071043,-117.459261
21011968,5,0,2024-02-28T17:28:59.872Z,male_vraiment_flat_169.wav,1,False,2714,56,M,2,0.142086,-45.020491
21011968,5,0,2024-02-28T17:28:59.872Z,male_vraiment_flat_169.wav,1,False,2714,56,M,3,0.213129,-67.699150
21011968,5,0,2024-02-28T17:28:59.872Z,male_vraiment_flat_169.wav,1,False,2714,56,M,4,0.284172,-122.755451
21011968,5,0,2024-02-28T17:28:59.872Z,male_vraiment_flat_169.wav,1,False,2714,56,M,5,0.355215,-10.702133
21011968,5,0,2024-02-28T17:28:59.872Z,male_vraiment_flat_169.wav,1,False,2714,56,M,6,0.426259,66.943327
21011968,6,0,2024-02-28T17:28:59.872Z,male_vraiment_flat_100.wav,0,False,27722,56,M,0,0.000000,43.543409
21011968,6,0,2024-02-28T17:28:59.872Z,male_vraiment_flat_100.wav,0,False,27722,56,M,1,0.071043,103.015481
21011968,6,0,2024-02-28T17:28:59.872Z,male_vraiment_flat_100.wav,0,False,27722,56,M,2,0.142086,72.119204
21011968,6,0,2024-02-28T17:28:59.872Z,male_vraiment_flat_100.wav,0,False,27722,56,M,3,0.213129,-134.244223
21011968,6,0,2024-02-28T17:28:59.872Z,male_vraiment_flat_100.wav,0,False,27722,56,M,4,0.284172,118.896008
21011968,6,0,2024-02-28T17:28:59.872Z,male_vraiment_flat_100.wav,0,False,27722,56,M,5,0.355215,-31.136245
21011968,6,0,2024-02-28T17:28:59.872Z,male_vraiment_flat_100.wav,0,False,27722,56,M,6,0.426259,41.834207
21011968,6,0,2024-02-28T17:28:59.872Z,male_vraiment_flat_27.wav,1,True,27722,56,M,0,0.000000,-44.196026
21011968,6,0,2024-02-28T17:28:59.872Z,male_vraiment_flat_27.wav,1,True,27722,56,M,1,0.071043,72.435582
21011968,6,0,2024-02-28T17:28:59.872Z,male_vraiment_flat_27.wav,1,True,27722,56,M,2,0.142086,30.880154
21011968,6,0,2024-02-28T17:28:59.872Z,male_vraiment_flat_27.wav,1,True,27722,56,M,3,0.213129,-98.055697
21011968,6,0,2024-02-28T17:28:59.872Z,male_vraiment_flat_27.wav,1,True,27722,56,M,4,0.284172,83.700413
21011968,6,0,2024-02-28T17:28:59.872Z,male_vraiment_flat_27.wav,1,True,27722,56,M,5,0.355215,23.865121
21011968,6,0,2024-02-28T17:28:59.872Z,male_vraiment_flat_27.wav,1,True,27722,56,M,6,0.426259,-44.006115
21011968,7,0,2024-02-28T17:28:59.872Z,male_vraiment_flat_38.wav,0,False,2389,56,M,0,0.000000,144.136513
21011968,7,0,2024-02-28T17:28:59.872Z,male_vraiment_flat_38.wav,0,False,2389,56,M,1,0.071043,-64.103106
21011968,7,0,2024-02-28T17:28:59.872Z,male_vraiment_flat_38.wav,0,False,2389,56,M,2,0.142086,-98.673112
21011968,7,0,2024-02-28T17:28:59.872Z,male_vraiment_flat_38.wav,0,False,2389,56,M,3,0.213129,-23.920097
21011968,7,0,2024-02-28T17:28:59.872Z,male_vraiment_flat_38.wav,0,False,2389,56,M,4,0.284172,-49.884553
21011968,7,0,2024-02-28T17:28:59.872Z,male_vraiment_flat_38.wav,0,False,2389,56,M,5,0.355215,-104.927811
21011968,7,0,2024-02-28T17:28:59.872Z,male_vraiment_flat_38.wav,0,False,2389,56,M,6,0.426259,133.075001
21011968,7,0,2024-02-28T17:28:59.872Z,male_vraiment_flat_133.wav,1,True,2389,56,M,0,0.000000,-33.116176
21011968,7,0,2024-02-28T17:28:59.872Z,male_vraiment_flat_133.wav,1,True,2389,56,M,1,0.071043,-79.722902
21011968,7,0,2024-02-28T17:28:59.872Z,male_vraiment_flat_133.wav,1,True,2389,56,M,2,0.142086,-0.174059
21011968,7,0,2024-02-28T17:28:59.872Z,male_vraiment_flat_133.wav,1,True,2389,56,M,3,0.213129,82.274364
21011968,7,0,2024-02-28T17:28:59.872Z,male_vraiment_flat_133.wav,1,True,2389,56,M,4,0.284172,-109.731995
21011968,7,0,2024-02-28T17:28:59.872Z,male_vraiment_flat_133.wav,1,True,2389,56,M,5,0.355215,-72.489270
21011968,7,0,2024-02-28T17:28:59.872Z,male_vraiment_flat_133.wav,1,True,2389,56,M,6,0.426259,11.511705
21011968,8,0,2024-02-28T17:28:59.872Z,male_vraiment_flat_158.wav,0,False,1239,56,M,0,0.000000,140.907348
21011968,8,0,2024-02-28T17:28:59.872Z,male_vraiment_flat_158.wav,0,False,1239,56,M,1,0.071043,56.647301
21011968,8,0,2024-02-28T17:28:59.872Z,male_vraiment_flat_158.wav,0,False,1239,56,M,2,0.142086,-121.852756
21011968,8,0,2024-02-28T17:28:59.872Z,male_vraiment_flat_158.wav,0,False,1239,56,M,3,0.213129,24.887877
21011968,8,0,2024-02-28T17:28:59.872Z,male_vraiment_flat_158.wav,0,False,1239,56,M,4,0.284172,-16.147612
21011968,8,0,2024-02-28T17:28:59.872Z,male_vraiment_flat_158.wav,0,False,1239,56,M,5,0.355215,22.171837
21011968,8,0,2024-02-28T17:28:59.872Z,male_vraiment_flat_158.wav,0,False,1239,56,M,6,0.426259,-49.022546
21011968,8,0,2024-02-28T17:28:59.872Z,male_vraiment_flat_148.wav,1,True,1239,56,M,0,0.000000,-84.148504
21011968,8,0,2024-02-28T17:28:59.872Z,male_vraiment_flat_148.wav,1,True,1239,56,M,1,0.071043,116.395609
21011968,8,0,2024-02-28T17:28:59.872Z,male_vraiment_flat_148.wav,1,True,1239,56,M,2,0.142086,22.272455
21011968,8,0,2024-02-28T17:28:59.872Z,male_vraiment_flat_148.wav,1,True,1239,56,M,3,0.213129,-42.662376
21011968,8,0,2024-02-28T17:28:59.872Z,male_vraiment_flat_148.wav,1,True,1239,56,M,4,0.284172,44.974228
21011968,8,0,2024-02-28T17:28:59.872Z,male_vraiment_flat_148.wav,1,True,1239,56,M,5,0.355215,-100.807841
21011968,8,0,2024-02-28T17:28:59.872Z,male_vraiment_flat_148.wav,1,True,1239,56,M,6,0.426259,75.062158
21011968,9,0,2024-02-28T17:28:59.872Z,male_vraiment_flat_103.wav,0,False,75,56,M,0,0.000000,107.674069
21011968,9,0,2024-02-28T17:28:59.872Z,male_vraiment_flat_103.wav,0,False,75,56,M,1,0.071043,149.413476
21011968,9,0,2024-02-28T17:28:59.872Z,male_vraiment_flat_103.wav,0,False,75,56,M,2,0.142086,-1.049319
21011968,9,0,2024-02-28T17:28:59.872Z,male_vraiment_flat_103.wav,0,False,75,56,M,3,0.213129,-7.353867
21011968,9,0,2024-02-28T17:28:59.872Z,male_vraiment_flat_103.wav,0,False,75,56,M,4,0.284172,-2.169492
21011968,9,0,2024-02-28T17:28:59.872Z,male_vraiment_flat_103.wav,0,False,75,56,M,5,0.355215,-94.854916
21011968,9,0,2024-02-28T17:28:59.872Z,male_vraiment_flat_103.wav,0,False,75,56,M,6,0.426259,119.487430
21011968,9,0,2024-02-28T17:28:59.872Z,male_vraiment_flat_14.wav,1,True,75,56,M,0,0.000000,-139.491371
21011968,9,0,2024-02-28T17:28:59.872Z,male_vraiment_flat_14.wav,1,True,75,56,M,1,0.071043,-89.621492
21011968,9,0,2024-02-28T17:28:59.872Z,male_vraiment_flat_14.wav,1,True,75,56,M,2,0.142086,-85.009614
21011968,9,0,2024-02-28T17:28:59.872Z,male_vraiment_flat_14.wav,1,True,75,56,M,3,0.213129,-29.902058
21011968,9,0,2024-02-28T17:28:59.872Z,male_vraiment_flat_14.wav,1,True,75,56,M,4,0.284172,-86.665261
21011968,9,0,2024-02-28T17:28:59.872Z,male_vraiment_flat_14.wav,1,True,75,56,M,5,0.355215,27.459037
21011968,9,0,2024-02-28T17:28:59.872Z,male_vraiment_flat_14.wav,1,True,75,56,M,6,0.426259,33.245669
21011968,10,0,2024-02-28T17:28:59.872Z,male_vraiment_flat_35.wav,0,False,170,56,M,0,0.000000,-80.907759
21011968,10,0,2024-02-28T17:28:59.872Z,male_vraiment_flat_35.wav,0,False,170,56,M,1,0.071043,-44.446048
21011968,10,0,2024-02-28T17:28:59.872Z,male_vraiment_flat_35.wav,0,False,170,56,M,2,0.142086,-51.579277
21011968,10,0,2024-02-28T17:28:59.872Z,male_vraiment_flat_35.wav,0,False,170,56,M,3,0.213129,-66.764099
21011968,10,0,2024-02-28T17:28:59.872Z,male_vraiment_flat_35.wav,0,False,170,56,M,4,0.284172,-35.478686
21011968,10,0,2024-02-28T17:28:59.872Z,male_vraiment_flat_35.wav,0,False,170,56,M,5,0.355215,-86.823570
21011968,10,0,2024-02-28T17:28:59.872Z,male_vraiment_flat_35.wav,0,False,170,56,M,6,0.426259,26.550026
21011968,10,0,2024-02-28T17:28:59.872Z,male_vraiment_flat_91.wav,1,True,170,56,M,0,0.000000,58.982225
21011968,10,0,2024-02-28T17:28:59.872Z,male_vraiment_flat_91.wav,1,True,170,56,M,1,0.071043,126.482844
21011968,10,0,2024-02-28T17:28:59.872Z,male_vraiment_flat_91.wav,1,True,170,56,M,2,0.142086,-120.324305
21011968,10,0,2024-02-28T17:28:59.872Z,male_vraiment_flat_91.wav,1,True,170,56,M,3,0.213129,54.493295
21011968,10,0,2024-02-28T17:28:59.872Z,male_vraiment_flat_91.wav,1,True,170,56,M,4,0.284172,74.680181
21011968,10,0,2024-02-28T17:28:59.872Z,male_vraiment_flat_91.wav,1,True,170,56,M,5,0.355215,99.124880
21011968,10,0,2024-02-28T17:28:59.872Z,male_vraiment_flat_91.wav,1,True,170,56,M,6,0.426259,-32.505202
21011968,11,0,2024-02-28T17:28:59.872Z,male_vraiment_flat_113.wav,0,False,926,56,M,0,0.000000,52.176539
21011968,11,0,2024-02-28T17:28:59.872Z,male_vraiment_flat_113.wav,0,False,926,56,M,1,0.071043,52.904766
21011968,11,0,2024-02-28T17:28:59.872Z,male_vraiment_flat_113.wav,0,False,926,56,M,2,0.142086,-138.473207
21011968,11,0,2024-02-28T17:28:59.872Z,male_vraiment_flat_113.wav,0,False,926,56,M,3,0.213129,-65.217652
21011968,11,0,2024-02-28T17:28:59.872Z,male_vraiment_flat_113.wav,0,False,926,56,M,4,0.284172,3.928053
21011968,11,0,2024-02-28T17:28:59.872Z,male_vraiment_flat_113.wav,0,False,926,56,M,5,0.355215,69.229623
21011968,11,0,2024-02-28T17:28:59.872Z,male_vraiment_flat_113.wav,0,False,926,56,M,6,0.426259,-85.157528
21011968,11,0,2024-02-28T17:28:59.872Z,male_vraiment_flat_175.wav,1,True,926,56,M,0,0.000000,-48.933192
21011968,11,0,2024-02-28T17:28:59.872Z,male_vraiment_flat_175.wav,1,True,926,56,M,1,0.071043,23.459372
21011968,11,0,2024-02-28T17:28:59.872Z,male_vraiment_flat_175.wav,1,True,926,56,M,2,0.142086,-82.944560
21011968,11,0,2024-02-28T17:28:59.872Z,male_vraiment_flat_175.wav,1,True,926,56,M,3,0.213129,-41.749231
21011968,11,0,2024-02-28T17:28:59.872Z,male_vraiment_flat_175.wav,1,True,926,56,M,4,0.284172,4.976289
21011968,11,0,2024-02-28T17:28:59.872Z,male_vraiment_flat_175.wav,1,True,926,56,M,5,0.355215,52.438424
21011968,11,0,2024-02-28T17:28:59.872Z,male_vraiment_flat_175.wav,1,True,926,56,M,6,0.426259,-117.325248
21011968,12,0,2024-02-28T17:28:59.872Z,male_vraiment_flat_149.wav,0,False,719,56,M,0,0.000000,17.402596
21011968,12,0,2024-02-28T17:28:59.872Z,male_vraiment_flat_149.wav,0,False,719,56,M,1,0.071043,-44.390985
21011968,12,0,2024-02-28T17:28:59.872Z,male_vraiment_flat_149.wav,0,False,719,56,M,2,0.142086,-32.370244
21011968,12,0,2024-02-28T17:28:59.872Z,male_vraiment_flat_149.wav,0,False,719,56,M,3,0.213129,33.896100
21011968,12,0,2024-02-28T17:28:59.872Z,male_vraiment_flat_149.wav,0,False,719,56,M,4,0.284172,130.098177
21011968,12,0,2024-02-28T17:28:59.872Z,male_vraiment_flat_149.wav,0,False,719,56,M,5,0.355215,-117.346579
21011968,12,0,2024-02-28T17:28:59.872Z,male_vraiment_flat_149.wav,0,False,719,56,M,6,0.426259,65.375118
21011968,12,0,2024-02-28T17:28:59.872Z,male_vraiment_flat_75.wav,1,True,719,56,M,0,0.000000,-102.776376
21011968,12,0,2024-02-28T17:28:59.872Z,male_vraiment_flat_75.wav,1,True,719,56,M,1,0.071043,141.116849
21011968,12,0,2024-02-28T17:28:59.872Z,male_vraiment_flat_75.wav,1,True,719,56,M,2,0.142086,12.209007
21011968,12,0,2024-02-28T17:28:59.872Z,male_vraiment_flat_75.wav,1,True,719,56,M,3,0.213129,-138.758513
21011968,12,0,2024-02-28T17:28:59.872Z,male_vraiment_flat_75.wav,1,True,719,56,M,4,0.284172,4.940697
21011968,12,0,2024-02-28T17:28:59.872Z,male_vraiment_flat_75.wav,1,True,719,56,M,5,0.355215,67.499606
21011968,12,0,2024-02-28T17:28:59.872Z,male_vraiment_flat_75.wav,1,True,719,56,M,6,0.426259,61.725226
21011968,13,0,2024-02-28T17:28:59.872Z,male_vraiment_flat_166.wav,0,False,136,56,M,0,0.000000,40.484109
21011968,13,0,2024-02-28T17:28:59.872Z,male_vraiment_flat_166.wav,0,False,136,56,M,1,0.071043,-10.250913
21011968,13,0,2024-02-28T17:28:59.872Z,male_vraiment_flat_166.wav,0,False,136,56,M,2,0.142086,-109.726305
21011968,13,0,2024-02-28T17:28:59.872Z,male_vraiment_flat_166.wav,0,False,136,56,M,3,0.213129,-32.205058
21011968,13,0,2024-02-28T17:28:59.872Z,male_vraiment_flat_166.wav,0,False,136,56,M,4,0.284172,141.461363
21011968,13,0,2024-02-28T17:28:59.872Z,male_vraiment_flat_166.wav,0,False,136,56,M,5,0.355215,65.199031
21011968,13,0,2024-02-28T17:28:59.872Z,male_vraiment_flat_166.wav,0,False,136,56,M,6,0.426259,-54.014549
21011968,13,0,2024-02-28T17:28:59.872Z,male_vraiment_flat_185.wav,1,True,136,56,M,0,0.000000,7.537788
21011968,13,0,2024-02-28T17:28:59.872Z,male_vraiment_flat_185.wav,1,True,136,56,M,1,0.071043,138.761382
21011968,13,0,2024-02-28T17:28:59.872Z,male_vraiment_flat_185.wav,1,True,136,56,M,2,0.142086,88.970452
21011968,13,0,2024-02-28T17:28:59.872Z,male_vraiment_flat_185.wav,1,True,136,56,M,3,0.213129,-106.980409
21011968,13,0,2024-02-28T17:28:59.872Z,male_vraiment_flat_185.wav,1,True,136,56,M,4,0.284172,-72.334155
21011968,13,0,2024-02-28T17:28:59.872Z,male_vraiment_flat_185.wav,1,True,136,56,M,5,0.355215,87.356426
21011968,13,0,2024-02-28T17:28:59.872Z,male_vraiment_flat_185.wav,1,True,136,56,M,6,0.426259,90.917936
21011968,14,0,2024-02-28T17:28:59.872Z,male_vraiment_flat_101.wav,0,False,352,56,M,0,0.000000,69.316576
21011968,14,0,2024-02-28T17:28:59.872Z,male_vraiment_flat_101.wav,0,False,352,56,M,1,0.071043,-9.395360
21011968,14,0,2024-02-28T17:28:59.872Z,male_vraiment_flat_101.wav,0,False,352,56,M,2,0.142086,-16.210020
21011968,14,0,2024-02-28T17:28:59.872Z,male_vraiment_flat_101.wav,0,False,352,56,M,3,0.213129,5.282415
21011968,14,0,2024-02-28T17:28:59.872Z,male_vraiment_flat_101.wav,0,False,352,56,M,4,0.284172,-92.031474
21011968,14,0,2024-02-28T17:28:59.872Z,male_vraiment_flat_101.wav,0,False,352,56,M,5,0.355215,-71.382142
21011968,14,0,2024-02-28T17:28:59.872Z,male_vraiment_flat_101.wav,0,False,352,56,M,6,0.426259,-144.168558
21011968,14,0,2024-02-28T17:28:59.872Z,male_vraiment_flat_84.wav,1,True,352,56,M,0,0.000000,79.222174
21011968,14,0,2024-02-28T17:28:59.872Z,male_vraiment_flat_84.wav,1,True,352,56,M,1,0.071043,61.816109
21011968,14,0,2024-02-28T17:28:59.872Z,male_vraiment_flat_84.wav,1,True,352,56,M,2,0.142086,-111.712238
21011968,14,0,2024-02-28T17:28:59.872Z,male_vraiment_flat_84.wav,1,True,352,56,M,3,0.213129,96.584947
21011968,14,0,2024-02-28T17:28:59.872Z,male_vraiment_flat_84.wav,1,True,352,56,M,4,0.284172,-11.292098
21011968,14,0,2024-02-28T17:28:59.872Z,male_vraiment_flat_84.wav,1,True,352,56,M,5,0.355215,57.720124
21011968,14,0,2024-02-28T17:28:59.872Z,male_vraiment_flat_84.wav,1,True,352,56,M,6,0.426259,-122.021307
21011968,15,0,2024-02-28T17:28:59.872Z,male_vraiment_flat_7.wav,0,False,21808,56,M,0,0.000000,43.823319
21011968,15,0,2024-02-28T17:28:59.872Z,male_vraiment_flat_7.wav,0,False,21808,56,M,1,0.071043,72.049148
21011968,15,0,2024-02-28T17:28:59.872Z,male_vraiment_flat_7.wav,0,False,21808,56,M,2,0.142086,-136.415247
21011968,15,0,2024-02-28T17:28:59.872Z,male_vraiment_flat_7.wav,0,False,21808,56,M,3,0.213129,44.015310
21011968,15,0,2024-02-28T17:28:59.872Z,male_vraiment_flat_7.wav,0,False,21808,56,M,4,0.284172,7.208530
21011968,15,0,2024-02-28T17:28:59.872Z,male_vraiment_flat_7.wav,0,False,21808,56,M,5,0.355215,18.587432
21011968,15,0,2024-02-28T17:28:59.872Z,male_vraiment_flat_7.wav,0,False,21808,56,M,6,0.426259,60.126473
21011968,15,0,2024-02-28T17:28:59.872Z,male_vraiment_flat_168.wav,1,True,21808,56,M,0,0.000000,20.996757
21011968,15,0,2024-02-28T17:28:59.872Z,male_vraiment_flat_168.wav,1,True,21808,56,M,1,0.071043,53.221671
21011968,15,0,2024-02-28T17:28:59.872Z,male_vraiment_flat_168.wav,1,True,21808,56,M,2,0.142086,15.731623
21011968,15,0,2024-02-28T17:28:59.872Z,male_vraiment_flat_168.wav,1,True,21808,56,M,3,0.213129,99.382807
21011968,15,0,2024-02-28T17:28:59.872Z,male_vraiment_flat_168.wav,1,True,21808,56,M,4,0.284172,-57.914754
21011968,15,0,2024-02-28T17:28:59.872Z,male_vraiment_flat_168.wav,1,True,21808,56,M,5,0.355215,26.961730
21011968,15,0,2024-02-28T17:28:59.872Z,male_vraiment_flat_168.wav,1,True,21808,56,M,6,0.426259,-63.149674
21011968,16,0,2024-02-28T17:28:59.872Z,male_vraiment_flat_122.wav,0,True,2236,56,M,0,0.000000,-51.664448
21011968,16,0,2024-02-28T17:28:59.872Z,male_vraiment_flat_122.wav,0,True,2236,56,M,1,0.071043,-83.789448
21011968,16,0,2024-02-28T17:28:59.872Z,male_vraiment_flat_122.wav,0,True,2236,56,M,2,0.142086,-129.204529
21011968,16,0,2024-02-28T17:28:59.872Z,male_vraiment_flat_122.wav,0,True,2236,56,M,3,0.213129,-2.729810
21011968,16,0,2024-02-28T17:28:59.872Z,male_vraiment_flat_122.wav,0,True,2236,56,M,4,0.284172,-63.338530
21011968,16,0,2024-02-28T17:28:59.872Z,male_vraiment_flat_122.wav,0,True,2236,56,M,5,0.355215,57.342517
21011968,16,0,2024-02-28T17:28:59.872Z,male_vraiment_flat_122.wav,0,True,2236,56,M,6,0.426259,30.309816
21011968,16,0,2024-02-28T17:28:59.872Z,male_vraiment_flat_191.wav,1,False,2236,56,M,0,0.000000,-3.321474
21011968,16,0,2024-02-28T17:28:59.872Z,male_vraiment_flat_191.wav,1,False,2236,56,M,1,0.071043,110.638678
21011968,16,0,2024-02-28T17:28:59.872Z,male_vraiment_flat_191.wav,1,False,2236,56,M,2,0.142086,142.170563
21011968,16,0,2024-02-28T17:28:59.872Z,male_vraiment_flat_191.wav,1,False,2236,56,M,3,0.213129,-110.761685
21011968,16,0,2024-02-28T17:28:59.872Z,male_vraiment_flat_191.wav,1,False,2236,56,M,4,0.284172,23.931067
21011968,16,0,2024-02-28T17:28:59.872Z,male_vraiment_flat_191.wav,1,False,2236,56,M,5,0.355215,-28.623113
21011968,16,0,2024-02-28T17:28:59.872Z,male_vraiment_flat_191.wav,1,False,2236,56,M,6,0.426259,68.073722
21011968,17,0,2024-02-28T17:28:59.872Z,male_vraiment_flat_81.wav,0,True,415,56,M,0,0.000000,35.884214
21011968,17,0,2024-02-28T17:28:59.872Z,male_vraiment_flat_81.wav,0,True,415,56,M,1,0.071043,19.404831
21011968,17,0,2024-02-28T17:28:59.872Z,male_vraiment_flat_81.wav,0,True,415,56,M,2,0.142086,121.693264
21011968,17,0,2024-02-28T17:28:59.872Z,male_vraiment_flat_81.wav,0,True,415,56,M,3,0.213129,29.127429
21011968,17,0,2024-02-28T17:28:59.872Z,male_vraiment_flat_81.wav,0,True,415,56,M,4,0.284172,71.322417
21011968,17,0,2024-02-28T17:28:59.872Z,male_vraiment_flat_81.wav,0,True,415,56,M,5,0.355215,138.687922
21011968,17,0,2024-02-28T17:28:59.872Z,male_vraiment_flat_81.wav,0,True,415,56,M,6,0.426259,110.537915
21011968,17,0,2024-02-28T17:28:59.872Z,male_vraiment_flat_134.wav,1,False,415,56,M,0,0.000000,85.320049
21011968,17,0,2024-02-28T17:28:59.872Z,male_vraiment_flat_134.wav,1,False,415,56,M,1,0.071043,2.147850
21011968,17,0,2024-02-28T17:28:59.872Z,male_vraiment_flat_134.wav,1,False,415,56,M,2,0.142086,140.355465
21011968,17,0,2024-02-28T17:28:59.872Z,male_vraiment_flat_134.wav,1,False,415,56,M,3,0.213129,98.923070
21011968,17,0,2024-02-28T17:28:59.872Z,male_vraiment_flat_134.wav,1,False,415,56,M,4,0.284172,20.388975
21011968,17,0,2024-02-28T17:28:59.872Z,male_vraiment_flat_134.wav,1,False,415,56,M,5,0.355215,-4.239426
21011968,17,0,2024-02-28T17:28:59.872Z,male_vraiment_flat_134.wav,1,False,415,56,M,6,0.426259,83.444299
21011968,18,0,2024-02-28T17:28:59.872Z,male_vraiment_flat_179.wav,0,True,2305,56,M,0,0.000000,31.793897
21011968,18,0,2024-02-28T17:28:59.872Z,male_vraiment_flat_179.wav,0,True,2305,56,M,1,0.071043,-7.766660
21011968,18,0,2024-02-28T17:28:59.872Z,male_vraiment_flat_179.wav,0,True,2305,56,M,2,0.142086,14.202215
21011968,18,0,2024-02-28T17:28:59.872Z,male_vraiment_flat_179.wav,0,True,2305,56,M,3,0.213129,-28.726082
21011968,18,0,2024-02-28T17:28:59.872Z,male_vraiment_flat_179.wav,0,True,2305,56,M,4,0.284172,-38.298342
21011968,18,0,2024-02-28T17:28:59.872Z,male_vraiment_flat_179.wav,0,True,2305,56,M,5,0.355215,97.025797
21011968,18,0,2024-02-28T17:28:59.872Z,male_vraiment_flat_179.wav,0,True,2305,56,M,6,0.426259,-148.112175
21011968,18,0,2024-02-28T17:28:59.872Z,male_vraiment_flat_65.wav,1,False,2305,56,M,0,0.000000,104.278510
21011968,18,0,2024-02-28T17:28:59.872Z,male_vraiment_flat_65.wav,1,False,2305,56,M,1,0.071043,120.742750
21011968,18,0,2024-02-28T17:28:59.872Z,male_vraiment_flat_65.wav,1,False,2305,56,M,2,0.142086,116.963717
21011968,18,0,2024-02-28T17:28:59.872Z,male_vraiment_flat_65.wav,1,False,2305,56,M,3,0.213129,-30.167489
21011968,18,0,2024-02-28T17:28:59.872Z,male_vraiment_flat_65.wav,1,False,2305,56,M,4,0.284172,58.482575
21011968,18,0,2024-02-28T17:28:59.872Z,male_vraiment_flat_65.wav,1,False,2305,56,M,5,0.355215,-35.240720
21011968,18,0,2024-02-28T17:28:59.872Z,male_vraiment_flat_65.wav,1,False,2305,56,M,6,0.426259,-49.851341
21011968,19,0,2024-02-28T17:28:59.872Z,male_vraiment_flat_117.wav,0,True,1623,56,M,0,0.000000,20.648074
21011968,19,0,2024-02-28T17:28:59.872Z,male_vraiment_flat_117.wav,0,True,1623,56,M,1,0.071043,145.233438
21011968,19,0,2024-02-28T17:28:59.872Z,male_vraiment_flat_117.wav,0,True,1623,56,M,2,0.142086,42.346521
21011968,19,0,2024-02-28T17:28:59.872Z,male_vraiment_flat_117.wav,0,True,1623,56,M,3,0.213129,-116.594338
21011968,19,0,2024-02-28T17:28:59.872Z,male_vraiment_flat_117.wav,0,True,1623,56,M,4,0.284172,94.892274
21011968,19,0,2024-02-28T17:28:59.872Z,male_vraiment_flat_117.wav,0,True,1623,56,M,5,0.355215,-123.170662
21011968,19,0,2024-02-28T17:28:59.872Z,male_vraiment_flat_117.wav,0,True,1623,56,M,6,0.426259,83.715702
21011968,19,0,2024-02-28T17:28:59.872Z,male_vraiment_flat_15.wav,1,False,1623,56,M,0,0.000000,-99.515509
21011968,19,0,2024-02-28T17:28:59.872Z,male_vraiment_flat_15.wav,1,False,1623,56,M,1,0.071043,-34.266668
21011968,19,0,2024-02-28T17:28:59.872Z,male_vraiment_flat_15.wav,1,False,1623,56,M,2,0.142086,14.847828
21011968,19,0,2024-02-28T17:28:59.872Z,male_vraiment_flat_15.wav,1,False,1623,56,M,3,0.213129,69.933849
21011968,19,0,2024-02-28T17:28:59.872Z,male_vraiment_flat_15.wav,1,False,1623,56,M,4,0.284172,112.308778
21011968,19,0,2024-02-28T17:28:59.872Z,male_vraiment_flat_15.wav,1,False,1623,56,M,5,0.355215,84.391608
21011968,19,0,2024-02-28T17:28:59.872Z,male_vraiment_flat_15.wav,1,False,1623,56,M,6,0.426259,-74.687150
21011968,20,0,2024-02-28T17:28:59.872Z,male_vraiment_flat_187.wav,0,True,3345,56,M,0,0.000000,-30.403680
21011968,20,0,2024-02-28T17:28:59.872Z,male_vraiment_flat_187.wav,0,True,3345,56,M,1,0.071043,-60.531290
21011968,20,0,2024-02-28T17:28:59.872Z,male_vraiment_flat_187.wav,0,True,3345,56,M,2,0.142086,-84.335778
21011968,20,0,2024-02-28T17:28:59.872Z,male_vraiment_flat_187.wav,0,True,3345,56,M,3,0.213129,-15.670285
21011968,20,0,2024-02-28T17:28:59.872Z,male_vraiment_flat_187.wav,0,True,3345,56,M,4,0.284172,-56.852158
21011968,20,0,2024-02-28T17:28:59.872Z,male_vraiment_flat_187.wav,0,True,3345,56,M,5,0.355215,50.399162
21011968,20,0,2024-02-28T17:28:59.872Z,male_vraiment_flat_187.wav,0,True,3345,56,M,6,0.426259,83.384475
21011968,20,0,2024-02-28T17:28:59.872Z,male_vraiment_flat_157.wav,1,False,3345,56,M,0,0.000000,20.473057
21011968,20,0,2024-02-28T17:28:59.872Z,male_vraiment_flat_157.wav,1,False,3345,56,M,1,0.071043,-103.427341
21011968,20,0,2024-02-28T17:28:59.872Z,male_vraiment_flat_157.wav,1,False,3345,56,M,2,0.142086,-58.670290
21011968,20,0,2024-02-28T17:28:59.872Z,male_vraiment_flat_157.wav,1,False,3345,56,M,3,0.213129,-88.181786
21011968,20,0,2024-02-28T17:28:59.872Z,male_vraiment_flat_157.wav,1,False,3345,56,M,4,0.284172,-145.892431
21011968,20,0,2024-02-28T17:28:59.872Z,male_vraiment_flat_157.wav,1,False,3345,56,M,5,0.355215,-121.197130
21011968,20,0,2024-02-28T17:28:59.872Z,male_vraiment_flat_157.wav,1,False,3345,56,M,6,0.426259,3.215116
21011968,21,0,2024-02-28T17:28:59.872Z,male_vraiment_flat_144.wav,0,True,1531,56,M,0,0.000000,-68.167624
21011968,21,0,2024-02-28T17:28:59.872Z,male_vraiment_flat_144.wav,0,True,1531,56,M,1,0.071043,-79.458647
21011968,21,0,2024-02-28T17:28:59.872Z,male_vraiment_flat_144.wav,0,True,1531,56,M,2,0.142086,-79.660425
21011968,21,0,2024-02-28T17:28:59.872Z,male_vraiment_flat_144.wav,0,True,1531,56,M,3,0.213129,60.124898
21011968,21,0,2024-02-28T17:28:59.872Z,male_vraiment_flat_144.wav,0,True,1531,56,M,4,0.284172,21.367664
21011968,21,0,2024-02-28T17:28:59.872Z,male_vraiment_flat_144.wav,0,True,1531,56,M,5,0.355215,44.158096
21011968,21,0,2024-02-28T17:28:59.872Z,male_vraiment_flat_144.wav,0,True,1531,56,M,6,0.426259,60.089593
21011968,21,0,2024-02-28T17:28:59.872Z,male_vraiment_flat_64.wav,1,False,1531,56,M,0,0.000000,113.461811
21011968,21,0,2024-02-28T17:28:59.872Z,male_vraiment_flat_64.wav,1,False,1531,56,M,1,0.071043,60.375974
21011968,21,0,2024-02-28T17:28:59.872Z,male_vraiment_flat_64.wav,1,False,1531,56,M,2,0.142086,-103.339599
21011968,21,0,2024-02-28T17:28:59.872Z,male_vraiment_flat_64.wav,1,False,1531,56,M,3,0.213129,103.179307
21011968,21,0,2024-02-28T17:28:59.872Z,male_vraiment_flat_64.wav,1,False,1531,56,M,4,0.284172,81.101135
21011968,21,0,2024-02-28T17:28:59.872Z,male_vraiment_flat_64.wav,1,False,1531,56,M,5,0.355215,-3.861127
21011968,21,0,2024-02-28T17:28:59.872Z,male_vraiment_flat_64.wav,1,False,1531,56,M,6,0.426259,-77.158959
21011968,22,0,2024-02-28T17:28:59.872Z,male_vraiment_flat_126.wav,0,False,2432,56,M,0,0.000000,23.450520
21011968,22,0,2024-02-28T17:28:59.872Z,male_vraiment_flat_126.wav,0,False,2432,56,M,1,0.071043,102.584681
21011968,22,0,2024-02-28T17:28:59.872Z,male_vraiment_flat_126.wav,0,False,2432,56,M,2,0.142086,38.224300
21011968,22,0,2024-02-28T17:28:59.872Z,male_vraiment_flat_126.wav,0,False,2432,56,M,3,0.213129,-16.427695
21011968,22,0,2024-02-28T17:28:59.872Z,male_vraiment_flat_126.wav,0,False,2432,56,M,4,0.284172,7.421137
21011968,22,0,2024-02-28T17:28:59.872Z,male_vraiment_flat_126.wav,0,False,2432,56,M,5,0.355215,-9.369055
21011968,22,0,2024-02-28T17:28:59.872Z,male_vraiment_flat_126.wav,0,False,2432,56,M,6,0.426259,-89.176758
21011968,22,0,2024-02-28T17:28:59.872Z,male_vraiment_flat_186.wav,1,True,2432,56,M,0,0.000000,-146.338275
21011968,22,0,2024-02-28T17:28:59.872Z,male_vraiment_flat_186.wav,1,True,2432,56,M,1,0.071043,17.632346
21011968,22,0,2024-02-28T17:28:59.872Z,male_vraiment_flat_186.wav,1,True,2432,56,M,2,0.142086,135.683559
21011968,22,0,2024-02-28T17:28:59.872Z,male_vraiment_flat_186.wav,1,True,2432,56,M,3,0.213129,133.054558
21011968,22,0,2024-02-28T17:28:59.872Z,male_vraiment_flat_186.wav,1,True,2432,56,M,4,0.284172,-31.983178
21011968,22,0,2024-02-28T17:28:59.872Z,male_vraiment_flat_186.wav,1,True,2432,56,M,5,0.355215,-117.937109
21011968,22,0,2024-02-28T17:28:59.872Z,male_vraiment_flat_186.wav,1,True,2432,56,M,6,0.426259,-78.681829
21011968,23,0,2024-02-28T17:28:59.872Z,male_vraiment_flat_22.wav,0,False,1147,56,M,0,0.000000,131.811490
21011968,23,0,2024-02-28T17:28:59.872Z,male_vraiment_flat_22.wav,0,False,1147,56,M,1,0.071043,-17.710289
21011968,23,0,2024-02-28T17:28:59.872Z,male_vraiment_flat_22.wav,0,False,1147,56,M,2,0.142086,-106.310722
21011968,23,0,2024-02-28T17:28:59.872Z,male_vraiment_flat_22.wav,0,False,1147,56,M,3,0.213129,-118.997283
21011968,23,0,2024-02-28T17:28:59.872Z,male_vraiment_flat_22.wav,0,False,1147,56,M,4,0.284172,-44.158651
21011968,23,0,2024-02-28T17:28:59.872Z,male_vraiment_flat_22.wav,0,False,1147,56,M,5,0.355215,-65.057904
21011968,23,0,2024-02-28T17:28:59.872Z,male_vraiment_flat_22.wav,0,False,1147,56,M,6,0.426259,142.657358
21011968,23,0,2024-02-28T17:28:59.872Z,male_vraiment_flat_92.wav,1,True,1147,56,M,0,0.000000,46.869845
21011968,23,0,2024-02-28T17:28:59.872Z,male_vraiment_flat_92.wav,1,True,1147,56,M,1,0.071043,-22.303854
21011968,23,0,2024-02-28T17:28:59.872Z,male_vraiment_flat_92.wav,1,True,1147,56,M,2,0.142086,54.218629
21011968,23,0,2024-02-28T17:28:59.872Z,male_vraiment_flat_92.wav,1,True,1147,56,M,3,0.213129,-37.706610
21011968,23,0,2024-02-28T17:28:59.872Z,male_vraiment_flat_92.wav,1,True,1147,56,M,4,0.284172,48.467677
21011968,23,0,2024-02-28T17:28:59.872Z,male_vraiment_flat_92.wav,1,True,1147,56,M,5,0.355215,-36.671620
21011968,23,0,2024-02-28T17:28:59.872Z,male_vraiment_flat_92.wav,1,True,1147,56,M,6,0.426259,-103.238186
21011968,24,0,2024-02-28T17:28:59.872Z,male_vraiment_flat_72.wav,0,True,1011,56,M,0,0.000000,-108.464526
21011968,24,0,2024-02-28T17:28:59.872Z,male_vraiment_flat_72.wav,0,True,1011,56,M,1,0.071043,78.835335
21011968,24,0,2024-02-28T17:28:59.872Z,male_vraiment_flat_72.wav,0,True,1011,56,M,2,0.142086,134.553834
21011968,24,0,2024-02-28T17:28:59.872Z,male_vraiment_flat_72.wav,0,True,1011,56,M,3,0.213129,5.396534
21011968,24,0,2024-02-28T17:28:59.872Z,male_vraiment_flat_72.wav,0,True,1011,56,M,4,0.284172,7.798595
21011968,24,0,2024-02-28T17:28:59.872Z,male_vraiment_flat_72.wav,0,True,1011,56,M,5,0.355215,65.510626
21011968,24,0,2024-02-28T17:28:59.872Z,male_vraiment_flat_72.wav,0,True,1011,56,M,6,0.426259,-103.798030
21011968,24,0,2024-02-28T17:28:59.872Z,male_vraiment_flat_34.wav,1,False,1011,56,M,0,0.000000,55.759121
21011968,24,0,2024-02-28T17:28:59.872Z,male_vraiment_flat_34.wav,1,False,1011,56,M,1,0.071043,56.428420
21011968,24,0,2024-02-28T17:28:59.872Z,male_vraiment_flat_34.wav,1,False,1011,56,M,2,0.142086,-58.759553
21011968,24,0,2024-02-28T17:28:59.872Z,male_vraiment_flat_34.wav,1,False,1011,56,M,3,0.213129,-145.130290
21011968,24,0,2024-02-28T17:28:59.872Z,male_vraiment_flat_34.wav,1,False,1011,56,M,4,0.284172,109.056087
21011968,24,0,2024-02-28T17:28:59.872Z,male_vraiment_flat_34.wav,1,False,1011,56,M,5,0.355215,-133.281135
21011968,24,0,2024-02-28T17:28:59.872Z,male_vraiment_flat_34.wav,1,False,1011,56,M,6,0.426259,-126.261912
21011968,25,0,2024-02-28T17:28:59.872Z,male_vraiment_flat_56.wav,0,True,1103,56,M,0,0.000000,30.953431
21011968,25,0,2024-02-28T17:28:59.872Z,male_vraiment_flat_56.wav,0,True,1103,56,M,1,0.071043,-50.543389
21011968,25,0,2024-02-28T17:28:59.872Z,male_vraiment_flat_56.wav,0,True,1103,56,M,2,0.142086,-40.325616
21011968,25,0,2024-02-28T17:28:59.872Z,male_vraiment_flat_56.wav,0,True,1103,56,M,3,0.213129,130.397773
21011968,25,0,2024-02-28T17:28:59.872Z,male_vraiment_flat_56.wav,0,True,1103,56,M,4,0.284172,-66.278306
21011968,25,0,2024-02-28T17:28:59.872Z,male_vraiment_flat_56.wav,0,True,1103,56,M,5,0.355215,127.583751
21011968,25,0,2024-02-28T17:28:59.872Z,male_vraiment_flat_56.wav,0,True,1103,56,M,6,0.426259,-120.769688
21011968,25,0,2024-02-28T17:28:59.872Z,male_vraiment_flat_48.wav,1,False,1103,56,M,0,0.000000,90.503303
21011968,25,0,2024-02-28T17:28:59.872Z,male_vraiment_flat_48.wav,1,False,1103,56,M,1,0.071043,6.970948
21011968,25,0,2024-02-28T17:28:59.872Z,male_vraiment_flat_48.wav,1,False,1103,56,M,2,0.142086,67.030496
21011968,25,0,2024-02-28T17:28:59.872Z,male_vraiment_flat_48.wav,1,False,1103,56,M,3,0.213129,131.765290
21011968,25,0,2024-02-28T17:28:59.872Z,male_vraiment_flat_48.wav,1,False,1103,56,M,4,0.284172,144.593501
21011968,25,0,2024-02-28T17:28:59.872Z,male_vraiment_flat_48.wav,1,False,1103,56,M,5,0.355215,16.017944
21011968,25,0,2024-02-28T17:28:59.872Z,male_vraiment_flat_48.wav,1,False,1103,56,M,6,0.426259,-146.021483
21011968,26,0,2024-02-28T17:28:59.872Z,male_vraiment_flat_123.wav,0,True,786,56,M,0,0.000000,24.338681
21011968,26,0,2024-02-28T17:28:59.872Z,male_vraiment_flat_123.wav,0,True,786,56,M,1,0.071043,-76.255610
21011968,26,0,2024-02-28T17:28:59.872Z,male_vraiment_flat_123.wav,0,True,786,56,M,2,0.142086,16.829571
21011968,26,0,2024-02-28T17:28:59.872Z,male_vraiment_flat_123.wav,0,True,786,56,M,3,0.213129,3.085792
21011968,26,0,2024-02-28T17:28:59.872Z,male_vraiment_flat_123.wav,0,True,786,56,M,4,0.284172,81.658793
21011968,26,0,2024-02-28T17:28:59.872Z,male_vraiment_flat_123.wav,0,True,786,56,M,5,0.355215,73.758354
21011968,26,0,2024-02-28T17:28:59.872Z,male_vraiment_flat_123.wav,0,True,786,56,M,6,0.426259,103.644220
21011968,26,0,2024-02-28T17:28:59.872Z,male_vraiment_flat_25.wav,1,False,786,56,M,0,0.000000,-129.422108
21011968,26,0,2024-02-28T17:28:59.872Z,male_vraiment_flat_25.wav,1,False,786,56,M,1,0.071043,-12.331663
21011968,26,0,2024-02-28T17:28:59.872Z,male_vraiment_flat_25.wav,1,False,786,56,M,2,0.142086,-97.065740
21011968,26,0,2024-02-28T17:28:59.872Z,male_vraiment_flat_25.wav,1,False,786,56,M,3,0.213129,-6.253122
21011968,26,0,2024-02-28T17:28:59.872Z,male_vraiment_flat_25.wav,1,False,786,56,M,4,0.284172,31.933743
21011968,26,0,2024-02-28T17:28:59.872Z,male_vraiment_flat_25.wav,1,False,786,56,M,5,0.355215,-58.415946
21011968,26,0,2024-02-28T17:28:59.872Z,male_vraiment_flat_25.wav,1,False,786,56,M,6,0.426259,117.143598
21011968,27,0,2024-02-28T17:28:59.872Z,male_vraiment_flat_131.wav,0,True,276,56,M,0,0.000000,107.175705
21011968,27,0,2024-02-28T17:28:59.872Z,male_vraiment_flat_131.wav,0,True,276,56,M,1,0.071043,81.997533
21011968,27,0,2024-02-28T17:28:59.872Z,male_vraiment_flat_131.wav,0,True,276,56,M,2,0.142086,53.236564
21011968,27,0,2024-02-28T17:28:59.872Z,male_vraiment_flat_131.wav,0,True,276,56,M,3,0.213129,108.962563
21011968,27,0,2024-02-28T17:28:59.872Z,male_vraiment_flat_131.wav,0,True,276,56,M,4,0.284172,-22.910156
21011968,27,0,2024-02-28T17:28:59.872Z,male_vraiment_flat_131.wav,0,True,276,56,M,5,0.355215,133.743101
21011968,27,0,2024-02-28T17:28:59.872Z,male_vraiment_flat_131.wav,0,True,276,56,M,6,0.426259,98.652547
21011968,27,0,2024-02-28T17:28:59.872Z,male_vraiment_flat_80.wav,1,False,276,56,M,0,0.000000,74.549472
21011968,27,0,2024-02-28T17:28:59.872Z,male_vraiment_flat_80.wav,1,False,276,56,M,1,0.071043,28.548945
21011968,27,0,2024-02-28T17:28:59.872Z,male_vraiment_flat_80.wav,1,False,276,56,M,2,0.142086,-70.639605
21011968,27,0,2024-02-28T17:28:59.872Z,male_vraiment_flat_80.wav,1,False,276,56,M,3,0.213129,105.678511
21011968,27,0,2024-02-28T17:28:59.872Z,male_vraiment_flat_80.wav,1,False,276,56,M,4,0.284172,54.429698
21011968,27,0,2024-02-28T17:28:59.872Z,male_vraiment_flat_80.wav,1,False,276,56,M,5,0.355215,38.972413
21011968,27,0,2024-02-28T17:28:59.872Z,male_vraiment_flat_80.wav,1,False,276,56,M,6,0.426259,36.313071
21011968,28,0,2024-02-28T17:28:59.872Z,male_vraiment_flat_109.wav,0,True,215,56,M,0,0.000000,47.448278
21011968,28,0,2024-02-28T17:28:59.872Z,male_vraiment_flat_109.wav,0,True,215,56,M,1,0.071043,97.426800
21011968,28,0,2024-02-28T17:28:59.872Z,male_vraiment_flat_109.wav,0,True,215,56,M,2,0.142086,-100.706472
21011968,28,0,2024-02-28T17:28:59.872Z,male_vraiment_flat_109.wav,0,True,215,56,M,3,0.213129,-21.542212
21011968,28,0,2024-02-28T17:28:59.872Z,male_vraiment_flat_109.wav,0,True,215,56,M,4,0.284172,-35.096541
21011968,28,0,2024-02-28T17:28:59.872Z,male_vraiment_flat_109.wav,0,True,215,56,M,5,0.355215,33.270062
21011968,28,0,2024-02-28T17:28:59.872Z,male_vraiment_flat_109.wav,0,True,215,56,M,6,0.426259,35.804127
21011968,28,0,2024-02-28T17:28:59.872Z,male_vraiment_flat_8.wav,1,False,215,56,M,0,0.000000,88.027847
21011968,28,0,2024-02-28T17:28:59.872Z,male_vraiment_flat_8.wav,1,False,215,56,M,1,0.071043,-108.976227
21011968,28,0,2024-02-28T17:28:59.872Z,male_vraiment_flat_8.wav,1,False,215,56,M,2,0.142086,36.591048
21011968,28,0,2024-02-28T17:28:59.872Z,male_vraiment_flat_8.wav,1,False,215,56,M,3,0.213129,7.260113
21011968,28,0,2024-02-28T17:28:59.872Z,male_vraiment_flat_8.wav,1,False,215,56,M,4,0.284172,-133.690195
21011968,28,0,2024-02-28T17:28:59.872Z,male_vraiment_flat_8.wav,1,False,215,56,M,5,0.355215,9.464811
21011968,28,0,2024-02-28T17:28:59.872Z,male_vraiment_flat_8.wav,1,False,215,56,M,6,0.426259,-67.780032
21011968,29,0,2024-02-28T17:28:59.872Z,male_vraiment_flat_58.wav,0,True,1377,56,M,0,0.000000,-52.909251
21011968,29,0,2024-02-28T17:28:59.872Z,male_vraiment_flat_58.wav,0,True,1377,56,M,1,0.071043,-4.560860
21011968,29,0,2024-02-28T17:28:59.872Z,male_vraiment_flat_58.wav,0,True,1377,56,M,2,0.142086,-106.285240
21011968,29,0,2024-02-28T17:28:59.872Z,male_vraiment_flat_58.wav,0,True,1377,56,M,3,0.213129,-64.474310
21011968,29,0,2024-02-28T17:28:59.872Z,male_vraiment_flat_58.wav,0,True,1377,56,M,4,0.284172,-121.964639
21011968,29,0,2024-02-28T17:28:59.872Z,male_vraiment_flat_58.wav,0,True,1377,56,M,5,0.355215,35.204504
21011968,29,0,2024-02-28T17:28:59.872Z,male_vraiment_flat_58.wav,0,True,1377,56,M,6,0.426259,-7.933790
21011968,29,0,2024-02-28T17:28:59.872Z,male_vraiment_flat_45.wav,1,False,1377,56,M,0,0.000000,-108.869549
21011968,29,0,2024-02-28T17:28:59.872Z,male_vraiment_flat_45.wav,1,False,1377,56,M,1,0.071043,-22.660114
21011968,29,0,2024-02-28T17:28:59.872Z,male_vraiment_flat_45.wav,1,False,1377,56,M,2,0.142086,-141.096375
21011968,29,0,2024-02-28T17:28:59.872Z,male_vraiment_flat_45.wav,1,False,1377,56,M,3,0.213129,-24.815065
21011968,29,0,2024-02-28T17:28:59.872Z,male_vraiment_flat_45.wav,1,False,1377,56,M,4,0.284172,102.804681
21011968,29,0,2024-02-28T17:28:59.872Z,male_vraiment_flat_45.wav,1,False,1377,56,M,5,0.355215,112.365201
21011968,29,0,2024-02-28T17:28:59.872Z,male_vraiment_flat_45.wav,1,False,1377,56,M,6,0.426259,95.196821
21011968,30,0,2024-02-28T17:28:59.872Z,male_vraiment_flat_195.wav,0,True,225,56,M,0,0.000000,-54.423844
21011968,30,0,2024-02-28T17:28:59.872Z,male_vraiment_flat_195.wav,0,True,225,56,M,1,0.071043,81.067183
21011968,30,0,2024-02-28T17:28:59.872Z,male_vraiment_flat_195.wav,0,True,225,56,M,2,0.142086,-60.396049
21011968,30,0,2024-02-28T17:28:59.872Z,male_vraiment_flat_195.wav,0,True,225,56,M,3,0.213129,-65.685418
21011968,30,0,2024-02-28T17:28:59.872Z,male_vraiment_flat_195.wav,0,True,225,56,M,4,0.284172,141.607211
21011968,30,0,2024-02-28T17:28:59.872Z,male_vraiment_flat_195.wav,0,True,225,56,M,5,0.355215,37.879388
21011968,30,0,2024-02-28T17:28:59.872Z,male_vraiment_flat_195.wav,0,True,225,56,M,6,0.426259,-52.972183
21011968,30,0,2024-02-28T17:28:59.872Z,male_vraiment_flat_155.wav,1,False,225,56,M,0,0.000000,-140.284917
21011968,30,0,2024-02-28T17:28:59.872Z,male_vraiment_flat_155.wav,1,False,225,56,M,1,0.071043,56.043903
21011968,30,0,2024-02-28T17:28:59.872Z,male_vraiment_flat_155.wav,1,False,225,56,M,2,0.142086,-2.142699
21011968,30,0,2024-02-28T17:28:59.872Z,male_vraiment_flat_155.wav,1,False,225,56,M,3,0.213129,-41.999388
21011968,30,0,2024-02-28T17:28:59.872Z,male_vraiment_flat_155.wav,1,False,225,56,M,4,0.284172,-69.522618
21011968,30,0,2024-02-28T17:28:59.872Z,male_vraiment_flat_155.wav,1,False,225,56,M,5,0.355215,29.697532
21011968,30,0,2024-02-28T17:28:59.872Z,male_vraiment_flat_155.wav,1,False,225,56,M,6,0.426259,40.565741
21011968,31,0,2024-02-28T17:28:59.872Z,male_vraiment_flat_181.wav,0,True,501,56,M,0,0.000000,87.984579
21011968,31,0,2024-02-28T17:28:59.872Z,male_vraiment_flat_181.wav,0,True,501,56,M,1,0.071043,-52.749156
21011968,31,0,2024-02-28T17:28:59.872Z,male_vraiment_flat_181.wav,0,True,501,56,M,2,0.142086,-81.744540
21011968,31,0,2024-02-28T17:28:59.872Z,male_vraiment_flat_181.wav,0,True,501,56,M,3,0.213129,-103.539742
21011968,31,0,2024-02-28T17:28:59.872Z,male_vraiment_flat_181.wav,0,True,501,56,M,4,0.284172,51.143910
21011968,31,0,2024-02-28T17:28:59.872Z,male_vraiment_flat_181.wav,0,True,501,56,M,5,0.355215,89.293467
21011968,31,0,2024-02-28T17:28:59.872Z,male_vraiment_flat_181.wav,0,True,501,56,M,6,0.426259,-33.289981
21011968,31,0,2024-02-28T17:28:59.872Z,male_vraiment_flat_73.wav,1,False,501,56,M,0,0.000000,116.322519
21011968,31,0,2024-02-28T17:28:59.872Z,male_vraiment_flat_73.wav,1,False,501,56,M,1,0.071043,-36.491811
21011968,31,0,2024-02-28T17:28:59.872Z,male_vraiment_flat_73.wav,1,False,501,56,M,2,0.142086,56.992902
21011968,31,0,2024-02-28T17:28:59.872Z,male_vraiment_flat_73.wav,1,False,501,56,M,3,0.213129,-102.405714
21011968,31,0,2024-02-28T17:28:59.872Z,male_vraiment_flat_73.wav,1,False,501,56,M,4,0.284172,18.027278
21011968,31,0,2024-02-28T17:28:59.872Z,male_vraiment_flat_73.wav,1,False,501,56,M,5,0.355215,92.986932
21011968,31,0,2024-02-28T17:28:59.872Z,male_vraiment_flat_73.wav,1,False,501,56,M,6,0.426259,-12.148577
21011968,32,0,2024-02-28T17:28:59.872Z,male_vraiment_flat_130.wav,0,True,511,56,M,0,0.000000,-146.057737
21011968,32,0,2024-02-28T17:28:59.872Z,male_vraiment_flat_130.wav,0,True,511,56,M,1,0.071043,-49.781911
21011968,32,0,2024-02-28T17:28:59.872Z,male_vraiment_flat_130.wav,0,True,511,56,M,2,0.142086,74.893740
21011968,32,0,2024-02-28T17:28:59.872Z,male_vraiment_flat_130.wav,0,True,511,56,M,3,0.213129,-14.505163
21011968,32,0,2024-02-28T17:28:59.872Z,male_vraiment_flat_130.wav,0,True,511,56,M,4,0.284172,16.979815
21011968,32,0,2024-02-28T17:28:59.872Z,male_vraiment_flat_130.wav,0,True,511,56,M,5,0.355215,-66.512052
21011968,32,0,2024-02-28T17:28:59.872Z,male_vraiment_flat_130.wav,0,True,511,56,M,6,0.426259,-59.569067
21011968,32,0,2024-02-28T17:28:59.872Z,male_vraiment_flat_137.wav,1,False,511,56,M,0,0.000000,80.130674
21011968,32,0,2024-02-28T17:28:59.872Z,male_vraiment_flat_137.wav,1,False,511,56,M,1,0.071043,138.574149
21011968,32,0,2024-02-28T17:28:59.872Z,male_vraiment_flat_137.wav,1,False,511,56,M,2,0.142086,75.493630
21011968,32,0,2024-02-28T17:28:59.872Z,male_vraiment_flat_137.wav,1,False,511,56,M,3,0.213129,-91.745449
21011968,32,0,2024-02-28T17:28:59.872Z,male_vraiment_flat_137.wav,1,False,511,56,M,4,0.284172,67.674634
21011968,32,0,2024-02-28T17:28:59.872Z,male_vraiment_flat_137.wav,1,False,511,56,M,5,0.355215,136.412365
21011968,32,0,2024-02-28T17:28:59.872Z,male_vraiment_flat_137.wav,1,False,511,56,M,6,0.426259,13.296001
21011968,33,0,2024-02-28T17:28:59.872Z,male_vraiment_flat_61.wav,0,True,244,56,M,0,0.000000,-131.156457
21011968,33,0,2024-02-28T17:28:59.872Z,male_vraiment_flat_61.wav,0,True,244,56,M,1,0.071043,-97.865916
21011968,33,0,2024-02-28T17:28:59.872Z,male_vraiment_flat_61.wav,0,True,244,56,M,2,0.142086,61.528867
21011968,33,0,2024-02-28T17:28:59.872Z,male_vraiment_flat_61.wav,0,True,244,56,M,3,0.213129,-10.532302
21011968,33,0,2024-02-28T17:28:59.872Z,male_vraiment_flat_61.wav,0,True,244,56,M,4,0.284172,-59.471070
21011968,33,0,2024-02-28T17:28:59.872Z,male_vraiment_flat_61.wav,0,True,244,56,M,5,0.355215,77.665776
21011968,33,0,2024-02-28T17:28:59.872Z,male_vraiment_flat_61.wav,0,True,244,56,M,6,0.426259,-95.375701
21011968,33,0,2024-02-28T17:28:59.872Z,male_vraiment_flat_0.wav,1,False,244,56,M,0,0.000000,9.896041
21011968,33,0,2024-02-28T17:28:59.872Z,male_vraiment_flat_0.wav,1,False,244,56,M,1,0.071043,101.528400
21011968,33,0,2024-02-28T17:28:59.872Z,male_vraiment_flat_0.wav,1,False,244,56,M,2,0.142086,-68.097850
21011968,33,0,2024-02-28T17:28:59.872Z,male_vraiment_flat_0.wav,1,False,244,56,M,3,0.213129,-142.658303
21011968,33,0,2024-02-28T17:28:59.872Z,male_vraiment_flat_0.wav,1,False,244,56,M,4,0.284172,-120.248224
21011968,33,0,2024-02-28T17:28:59.872Z,male_vraiment_flat_0.wav,1,False,244,56,M,5,0.355215,31.293845
21011968,33,0,2024-02-28T17:28:59.872Z,male_vraiment_flat_0.wav,1,False,244,56,M,6,0.426259,-137.250528
21011968,34,0,2024-02-28T17:28:59.872Z,male_vraiment_flat_171.wav,0,True,361,56,M,0,0.000000,-132.910898
21011968,34,0,2024-02-28T17:28:59.872Z,male_vraiment_flat_171.wav,0,True,361,56,M,1,0.071043,-40.348113
21011968,34,0,2024-02-28T17:28:59.872Z,male_vraiment_flat_171.wav,0,True,361,56,M,2,0.142086,-144.469254
21011968,34,0,2024-02-28T17:28:59.872Z,male_vraiment_flat_171.wav,0,True,361,56,M,3,0.213129,-148.365603
21011968,34,0,2024-02-28T17:28:59.872Z,male_vraiment_flat_171.wav,0,True,361,56,M,4,0.284172,29.209812
21011968,34,0,2024-02-28T17:28:59.872Z,male_vraiment_flat_171.wav,0,True,361,56,M,5,0.355215,-68.789467
21011968,34,0,2024-02-28T17:28:59.872Z,male_vraiment_flat_171.wav,0,True,361,56,M,6,0.426259,116.539457
21011968,34,0,2024-02-28T17:28:59.872Z,male_vraiment_flat_18.wav,1,False,361,56,M,0,0.000000,-126.424441
21011968,34,0,2024-02-28T17:28:59.872Z,male_vraiment_flat_18.wav,1,False,361,56,M,1,0.071043,-57.286238
21011968,34,0,2024-02-28T17:28:59.872Z,male_vraiment_flat_18.wav,1,False,361,56,M,2,0.142086,14.494248
21011968,34,0,2024-02-28T17:28:59.872Z,male_vraiment_flat_18.wav,1,False,361,56,M,3,0.213129,11.325267
21011968,34,0,2024-02-28T17:28:59.872Z,male_vraiment_flat_18.wav,1,False,361,56,M,4,0.284172,-20.022709
21011968,34,0,2024-02-28T17:28:59.872Z,male_vraiment_flat_18.wav,1,False,361,56,M,5,0.355215,-67.838631
21011968,34,0,2024-02-28T17:28:59.872Z,male_vraiment_flat_18.wav,1,False,361,56,M,6,0.426259,-75.619086
21011968,35,0,2024-02-28T17:28:59.872Z,male_vraiment_flat_47.wav,0,False,2820,56,M,0,0.000000,11.243959
21011968,35,0,2024-02-28T17:28:59.872Z,male_vraiment_flat_47.wav,0,False,2820,56,M,1,0.071043,-131.885563
21011968,35,0,2024-02-28T17:28:59.872Z,male_vraiment_flat_47.wav,0,False,2820,56,M,2,0.142086,22.720944
21011968,35,0,2024-02-28T17:28:59.872Z,male_vraiment_flat_47.wav,0,False,2820,56,M,3,0.213129,-98.981706
21011968,35,0,2024-02-28T17:28:59.872Z,male_vraiment_flat_47.wav,0,False,2820,56,M,4,0.284172,-117.392555
21011968,35,0,2024-02-28T17:28:59.872Z,male_vraiment_flat_47.wav,0,False,2820,56,M,5,0.355215,-7.362816
21011968,35,0,2024-02-28T17:28:59.872Z,male_vraiment_flat_47.wav,0,False,2820,56,M,6,0.426259,149.963589
21011968,35,0,2024-02-28T17:28:59.872Z,male_vraiment_flat_6.wav,1,True,2820,56,M,0,0.000000,99.637695
21011968,35,0,2024-02-28T17:28:59.872Z,male_vraiment_flat_6.wav,1,True,2820,56,M,1,0.071043,129.019395
21011968,35,0,2024-02-28T17:28:59.872Z,male_vraiment_flat_6.wav,1,True,2820,56,M,2,0.142086,85.352544
21011968,35,0,2024-02-28T17:28:59.872Z,male_vraiment_flat_6.wav,1,True,2820,56,M,3,0.213129,122.275637
21011968,35,0,2024-02-28T17:28:59.872Z,male_vraiment_flat_6.wav,1,True,2820,56,M,4,0.284172,45.838224
21011968,35,0,2024-02-28T17:28:59.872Z,male_vraiment_flat_6.wav,1,True,2820,56,M,5,0.355215,149.126562
21011968,35,0,2024-02-28T17:28:59.872Z,male_vraiment_flat_6.wav,1,True,2820,56,M,6,0.426259,9.632372
21011968,36,0,2024-02-28T17:28:59.872Z,male_vraiment_flat_178.wav,0,True,1511,56,M,0,0.000000,-112.052653
21011968,36,0,2024-02-28T17:28:59.872Z,male_vraiment_flat_178.wav,0,True,1511,56,M,1,0.071043,-21.378049
21011968,36,0,2024-02-28T17:28:59.872Z,male_vraiment_flat_178.wav,0,True,1511,56,M,2,0.142086,71.395950
21011968,36,0,2024-02-28T17:28:59.872Z,male_vraiment_flat_178.wav,0,True,1511,56,M,3,0.213129,66.817796
21011968,36,0,2024-02-28T17:28:59.872Z,male_vraiment_flat_178.wav,0,True,1511,56,M,4,0.284172,25.203350
21011968,36,0,2024-02-28T17:28:59.872Z,male_vraiment_flat_178.wav,0,True,1511,56,M,5,0.355215,-37.010641
21011968,36,0,2024-02-28T17:28:59.872Z,male_vraiment_flat_178.wav,0,True,1511,56,M,6,0.426259,88.032365
21011968,36,0,2024-02-28T17:28:59.872Z,male_vraiment_flat_71.wav,1,False,1511,56,M,0,0.000000,98.558580
21011968,36,0,2024-02-28T17:28:59.872Z,male_vraiment_flat_71.wav,1,False,1511,56,M,1,0.071043,119.886109
21011968,36,0,2024-02-28T17:28:59.872Z,male_vraiment_flat_71.wav,1,False,1511,56,M,2,0.142086,-7.976954
21011968,36,0,2024-02-28T17:28:59.872Z,male_vraiment_flat_71.wav,1,False,1511,56,M,3,0.213129,7.397873
21011968,36,0,2024-02-28T17:28:59.872Z,male_vraiment_flat_71.wav,1,False,1511,56,M,4,0.284172,8.946833
21011968,36,0,2024-02-28T17:28:59.872Z,male_vraiment_flat_71.wav,1,False,1511,56,M,5,0.355215,-77.850016
21011968,36,0,2024-02-28T17:28:59.872Z,male_vraiment_flat_71.wav,1,False,1511,56,M,6,0.426259,-8.433981
21011968,37,0,2024-02-28T17:28:59.872Z,male_vraiment_flat_59.wav,0,True,1219,56,M,0,0.000000,-36.418372
21011968,37,0,2024-02-28T17:28:59.872Z,male_vraiment_flat_59.wav,0,True,1219,56,M,1,0.071043,84.104587
21011968,37,0,2024-02-28T17:28:59.872Z,male_vraiment_flat_59.wav,0,True,1219,56,M,2,0.142086,132.070943
21011968,37,0,2024-02-28T17:28:59.872Z,male_vraiment_flat_59.wav,0,True,1219,56,M,3,0.213129,-36.088233
21011968,37,0,2024-02-28T17:28:59.872Z,male_vraiment_flat_59.wav,0,True,1219,56,M,4,0.284172,-93.351425
21011968,37,0,2024-02-28T17:28:59.872Z,male_vraiment_flat_59.wav,0,True,1219,56,M,5,0.355215,57.665522
21011968,37,0,2024-02-28T17:28:59.872Z,male_vraiment_flat_59.wav,0,True,1219,56,M,6,0.426259,137.323922
21011968,37,0,2024-02-28T17:28:59.872Z,male_vraiment_flat_188.wav,1,False,1219,56,M,0,0.000000,-11.484944
21011968,37,0,2024-02-28T17:28:59.872Z,male_vraiment_flat_188.wav,1,False,1219,56,M,1,0.071043,-70.368872
21011968,37,0,2024-02-28T17:28:59.872Z,male_vraiment_flat_188.wav,1,False,1219,56,M,2,0.142086,-35.616146
21011968,37,0,2024-02-28T17:28:59.872Z,male_vraiment_flat_188.wav,1,False,1219,56,M,3,0.213129,0.109627
21011968,37,0,2024-02-28T17:28:59.872Z,male_vraiment_flat_188.wav,1,False,1219,56,M,4,0.284172,2.553157
21011968,37,0,2024-02-28T17:28:59.872Z,male_vraiment_flat_188.wav,1,False,1219,56,M,5,0.355215,-21.302793
21011968,37,0,2024-02-28T17:28:59.872Z,male_vraiment_flat_188.wav,1,False,1219,56,M,6,0.426259,-116.307336
21011968,38,0,2024-02-28T17:28:59.872Z,male_vraiment_flat_26.wav,0,True,5075,56,M,0,0.000000,-135.344658
21011968,38,0,2024-02-28T17:28:59.872Z,male_vraiment_flat_26.wav,0,True,5075,56,M,1,0.071043,-76.172858
21011968,38,0,2024-02-28T17:28:59.872Z,male_vraiment_flat_26.wav,0,True,5075,56,M,2,0.142086,-130.999312
21011968,38,0,2024-02-28T17:28:59.872Z,male_vraiment_flat_26.wav,0,True,5075,56,M,3,0.213129,-146.306144
21011968,38,0,2024-02-28T17:28:59.872Z,male_vraiment_flat_26.wav,0,True,5075,56,M,4,0.284172,-78.266251
21011968,38,0,2024-02-28T17:28:59.872Z,male_vraiment_flat_26.wav,0,True,5075,56,M,5,0.355215,30.254136
21011968,38,0,2024-02-28T17:28:59.872Z,male_vraiment_flat_26.wav,0,True,5075,56,M,6,0.426259,-114.179281
21011968,38,0,2024-02-28T17:28:59.872Z,male_vraiment_flat_24.wav,1,False,5075,56,M,0,0.000000,-144.276814
21011968,38,0,2024-02-28T17:28:59.872Z,male_vraiment_flat_24.wav,1,False,5075,56,M,1,0.071043,-59.436611
21011968,38,0,2024-02-28T17:28:59.872Z,male_vraiment_flat_24.wav,1,False,5075,56,M,2,0.142086,45.565590
21011968,38,0,2024-02-28T17:28:59.872Z,male_vraiment_flat_24.wav,1,False,5075,56,M,3,0.213129,19.626340
21011968,38,0,2024-02-28T17:28:59.872Z,male_vraiment_flat_24.wav,1,False,5075,56,M,4,0.284172,-127.586662
21011968,38,0,2024-02-28T17:28:59.872Z,male_vraiment_flat_24.wav,1,False,5075,56,M,5,0.355215,59.214853
21011968,38,0,2024-02-28T17:28:59.872Z,male_vraiment_flat_24.wav,1,False,5075,56,M,6,0.426259,-70.996219
21011968,39,0,2024-02-28T17:28:59.872Z,male_vraiment_flat_141.wav,0,True,2640,56,M,0,0.000000,137.275446
21011968,39,0,2024-02-28T17:28:59.872Z,male_vraiment_flat_141.wav,0,True,2640,56,M,1,0.071043,43.805847
21011968,39,0,2024-02-28T17:28:59.872Z,male_vraiment_flat_141.wav,0,True,2640,56,M,2,0.142086,-129.344909
21011968,39,0,2024-02-28T17:28:59.872Z,male_vraiment_flat_141.wav,0,True,2640,56,M,3,0.213129,-123.799171
21011968,39,0,2024-02-28T17:28:59.872Z,male_vraiment_flat_141.wav,0,True,2640,56,M,4,0.284172,-103.584410
21011968,39,0,2024-02-28T17:28:59.872Z,male_vraiment_flat_141.wav,0,True,2640,56,M,5,0.355215,8.047141
21011968,39,0,2024-02-28T17:28:59.872Z,male_vraiment_flat_141.wav,0,True,2640,56,M,6,0.426259,-108.188423
21011968,39,0,2024-02-28T17:28:59.872Z,male_vraiment_flat_3.wav,1,False,2640,56,M,0,0.000000,139.821339
21011968,39,0,2024-02-28T17:28:59.872Z,male_vraiment_flat_3.wav,1,False,2640,56,M,1,0.071043,-90.088416
21011968,39,0,2024-02-28T17:28:59.872Z,male_vraiment_flat_3.wav,1,False,2640,56,M,2,0.142086,-144.376143
21011968,39,0,2024-02-28T17:28:59.872Z,male_vraiment_flat_3.wav,1,False,2640,56,M,3,0.213129,-83.117215
21011968,39,0,2024-02-28T17:28:59.872Z,male_vraiment_flat_3.wav,1,False,2640,56,M,4,0.284172,-15.266959
21011968,39,0,2024-02-28T17:28:59.872Z,male_vraiment_flat_3.wav,1,False,2640,56,M,5,0.355215,-78.645111
21011968,39,0,2024-02-28T17:28:59.872Z,male_vraiment_flat_3.wav,1,False,2640,56,M,6,0.426259,18.566710
21011968,40,0,2024-02-28T17:28:59.872Z,male_vraiment_flat_156.wav,0,True,454,56,M,0,0.000000,62.995907
21011968,40,0,2024-02-28T17:28:59.872Z,male_vraiment_flat_156.wav,0,True,454,56,M,1,0.071043,-119.801161
21011968,40,0,2024-02-28T17:28:59.872Z,male_vraiment_flat_156.wav,0,True,454,56,M,2,0.142086,-125.261471
21011968,40,0,2024-02-28T17:28:59.872Z,male_vraiment_flat_156.wav,0,True,454,56,M,3,0.213129,110.918732
21011968,40,0,2024-02-28T17:28:59.872Z,male_vraiment_flat_156.wav,0,True,454,56,M,4,0.284172,-27.635219
21011968,40,0,2024-02-28T17:28:59.872Z,male_vraiment_flat_156.wav,0,True,454,56,M,5,0.355215,57.926930
21011968,40,0,2024-02-28T17:28:59.872Z,male_vraiment_flat_156.wav,0,True,454,56,M,6,0.426259,-85.703842
21011968,40,0,2024-02-28T17:28:59.872Z,male_vraiment_flat_12.wav,1,False,454,56,M,0,0.000000,-11.936919
21011968,40,0,2024-02-28T17:28:59.872Z,male_vraiment_flat_12.wav,1,False,454,56,M,1,0.071043,-51.249998
21011968,40,0,2024-02-28T17:28:59.872Z,male_vraiment_flat_12.wav,1,False,454,56,M,2,0.142086,42.322915
21011968,40,0,2024-02-28T17:28:59.872Z,male_vraiment_flat_12.wav,1,False,454,56,M,3,0.213129,-19.839410
21011968,40,0,2024-02-28T17:28:59.872Z,male_vraiment_flat_12.wav,1,False,454,56,M,4,0.284172,46.127041
21011968,40,0,2024-02-28T17:28:59.872Z,male_vraiment_flat_12.wav,1,False,454,56,M,5,0.355215,34.596861
21011968,40,0,2024-02-28T17:28:59.872Z,male_vraiment_flat_12.wav,1,False,454,56,M,6,0.426259,143.594573
21011968,41,0,2024-02-28T17:28:59.872Z,male_vraiment_flat_125.wav,0,True,427,56,M,0,0.000000,-40.862052
21011968,41,0,2024-02-28T17:28:59.872Z,male_vraiment_flat_125.wav,0,True,427,56,M,1,0.071043,93.193290
21011968,41,0,2024-02-28T17:28:59.872Z,male_vraiment_flat_125.wav,0,True,427,56,M,2,0.142086,71.046063
21011968,41,0,2024-02-28T17:28:59.872Z,male_vraiment_flat_125.wav,0,True,427,56,M,3,0.213129,-144.093496
21011968,41,0,2024-02-28T17:28:59.872Z,male_vraiment_flat_125.wav,0,True,427,56,M,4,0.284172,-1.218193
21011968,41,0,2024-02-28T17:28:59.872Z,male_vraiment_flat_125.wav,0,True,427,56,M,5,0.355215,94.223966
21011968,41,0,2024-02-28T17:28:59.872Z,male_vraiment_flat_125.wav,0,True,427,56,M,6,0.426259,-56.349938
21011968,41,0,2024-02-28T17:28:59.872Z,male_vraiment_flat_135.wav,1,False,427,56,M,0,0.000000,69.664553
21011968,41,0,2024-02-28T17:28:59.872Z,male_vraiment_flat_135.wav,1,False,427,56,M,1,0.071043,-40.692966
21011968,41,0,2024-02-28T17:28:59.872Z,male_vraiment_flat_135.wav,1,False,427,56,M,2,0.142086,-94.283336
21011968,41,0,2024-02-28T17:28:59.872Z,male_vraiment_flat_135.wav,1,False,427,56,M,3,0.213129,7.777910
21011968,41,0,2024-02-28T17:28:59.872Z,male_vraiment_flat_135.wav,1,False,427,56,M,4,0.284172,26.713191
21011968,41,0,2024-02-28T17:28:59.872Z,male_vraiment_flat_135.wav,1,False,427,56,M,5,0.355215,137.292776
21011968,41,0,2024-02-28T17:28:59.872Z,male_vraiment_flat_135.wav,1,False,427,56,M,6,0.426259,-136.153804
21011968,42,0,2024-02-28T17:28:59.872Z,male_vraiment_flat_2.wav,0,True,425,56,M,0,0.000000,-26.280713
21011968,42,0,2024-02-28T17:28:59.872Z,male_vraiment_flat_2.wav,0,True,425,56,M,1,0.071043,83.932106
21011968,42,0,2024-02-28T17:28:59.872Z,male_vraiment_flat_2.wav,0,True,425,56,M,2,0.142086,59.369452
21011968,42,0,2024-02-28T17:28:59.872Z,male_vraiment_flat_2.wav,0,True,425,56,M,3,0.213129,8.881156
21011968,42,0,2024-02-28T17:28:59.872Z,male_vraiment_flat_2.wav,0,True,425,56,M,4,0.284172,3.498385
21011968,42,0,2024-02-28T17:28:59.872Z,male_vraiment_flat_2.wav,0,True,425,56,M,5,0.355215,-133.430007
21011968,42,0,2024-02-28T17:28:59.872Z,male_vraiment_flat_2.wav,0,True,425,56,M,6,0.426259,94.606197
21011968,42,0,2024-02-28T17:28:59.872Z,male_vraiment_flat_142.wav,1,False,425,56,M,0,0.000000,129.881009
21011968,42,0,2024-02-28T17:28:59.872Z,male_vraiment_flat_142.wav,1,False,425,56,M,1,0.071043,116.596688
21011968,42,0,2024-02-28T17:28:59.872Z,male_vraiment_flat_142.wav,1,False,425,56,M,2,0.142086,48.203333
21011968,42,0,2024-02-28T17:28:59.872Z,male_vraiment_flat_142.wav,1,False,425,56,M,3,0.213129,100.883154
21011968,42,0,2024-02-28T17:28:59.872Z,male_vraiment_flat_142.wav,1,False,425,56,M,4,0.284172,-39.625904
21011968,42,0,2024-02-28T17:28:59.872Z,male_vraiment_flat_142.wav,1,False,425,56,M,5,0.355215,-141.802649
21011968,42,0,2024-02-28T17:28:59.872Z,male_vraiment_flat_142.wav,1,False,425,56,M,6,0.426259,58.691582
21011968,43,0,2024-02-28T17:28:59.872Z,male_vraiment_flat_160.wav,0,True,380,56,M,0,0.000000,21.342691
21011968,43,0,2024-02-28T17:28:59.872Z,male_vraiment_flat_160.wav,0,True,380,56,M,1,0.071043,-76.780347
21011968,43,0,2024-02-28T17:28:59.872Z,male_vraiment_flat_160.wav,0,True,380,56,M,2,0.142086,-127.843887
21011968,43,0,2024-02-28T17:28:59.872Z,male_vraiment_flat_160.wav,0,True,380,56,M,3,0.213129,-126.126744
21011968,43,0,2024-02-28T17:28:59.872Z,male_vraiment_flat_160.wav,0,True,380,56,M,4,0.284172,-33.722090
21011968,43,0,2024-02-28T17:28:59.872Z,male_vraiment_flat_160.wav,0,True,380,56,M,5,0.355215,18.600024
21011968,43,0,2024-02-28T17:28:59.872Z,male_vraiment_flat_160.wav,0,True,380,56,M,6,0.426259,-57.157597
21011968,43,0,2024-02-28T17:28:59.872Z,male_vraiment_flat_29.wav,1,False,380,56,M,0,0.000000,78.626852
21011968,43,0,2024-02-28T17:28:59.872Z,male_vraiment_flat_29.wav,1,False,380,56,M,1,0.071043,124.163952
21011968,43,0,2024-02-28T17:28:59.872Z,male_vraiment_flat_29.wav,1,False,380,56,M,2,0.142086,-62.289103
21011968,43,0,2024-02-28T17:28:59.872Z,male_vraiment_flat_29.wav,1,False,380,56,M,3,0.213129,54.806982
21011968,43,0,2024-02-28T17:28:59.872Z,male_vraiment_flat_29.wav,1,False,380,56,M,4,0.284172,75.809549
21011968,43,0,2024-02-28T17:28:59.872Z,male_vraiment_flat_29.wav,1,False,380,56,M,5,0.355215,87.233703
21011968,43,0,2024-02-28T17:28:59.872Z,male_vraiment_flat_29.wav,1,False,380,56,M,6,0.426259,-95.916715
21011968,44,0,2024-02-28T17:28:59.872Z,male_vraiment_flat_164.wav,0,True,479,56,M,0,0.000000,-99.029475
21011968,44,0,2024-02-28T17:28:59.872Z,male_vraiment_flat_164.wav,0,True,479,56,M,1,0.071043,-83.219544
21011968,44,0,2024-02-28T17:28:59.872Z,male_vraiment_flat_164.wav,0,True,479,56,M,2,0.142086,-76.160804
21011968,44,0,2024-02-28T17:28:59.872Z,male_vraiment_flat_164.wav,0,True,479,56,M,3,0.213129,-60.412119
21011968,44,0,2024-02-28T17:28:59.872Z,male_vraiment_flat_164.wav,0,True,479,56,M,4,0.284172,-135.438027
21011968,44,0,2024-02-28T17:28:59.872Z,male_vraiment_flat_164.wav,0,True,479,56,M,5,0.355215,-30.546522
21011968,44,0,2024-02-28T17:28:59.872Z,male_vraiment_flat_164.wav,0,True,479,56,M,6,0.426259,-142.367635
21011968,44,0,2024-02-28T17:28:59.872Z,male_vraiment_flat_163.wav,1,False,479,56,M,0,0.000000,-73.767207
21011968,44,0,2024-02-28T17:28:59.872Z,male_vraiment_flat_163.wav,1,False,479,56,M,1,0.071043,23.213677
21011968,44,0,2024-02-28T17:28:59.872Z,male_vraiment_flat_163.wav,1,False,479,56,M,2,0.142086,-14.939662
21011968,44,0,2024-02-28T17:28:59.872Z,male_vraiment_flat_163.wav,1,False,479,56,M,3,0.213129,-71.864469
21011968,44,0,2024-02-28T17:28:59.872Z,male_vraiment_flat_163.wav,1,False,479,56,M,4,0.284172,-38.295965
21011968,44,0,2024-02-28T17:28:59.872Z,male_vraiment_flat_163.wav,1,False,479,56,M,5,0.355215,-52.851418
21011968,44,0,2024-02-28T17:28:59.872Z,male_vraiment_flat_163.wav,1,False,479,56,M,6,0.426259,-70.943671
21011968,45,0,2024-02-28T17:28:59.872Z,male_vraiment_flat_43.wav,0,True,1066,56,M,0,0.000000,49.290737
21011968,45,0,2024-02-28T17:28:59.872Z,male_vraiment_flat_43.wav,0,True,1066,56,M,1,0.071043,5.814602
21011968,45,0,2024-02-28T17:28:59.872Z,male_vraiment_flat_43.wav,0,True,1066,56,M,2,0.142086,-14.528706
21011968,45,0,2024-02-28T17:28:59.872Z,male_vraiment_flat_43.wav,0,True,1066,56,M,3,0.213129,53.076799
21011968,45,0,2024-02-28T17:28:59.872Z,male_vraiment_flat_43.wav,0,True,1066,56,M,4,0.284172,-30.290069
21011968,45,0,2024-02-28T17:28:59.872Z,male_vraiment_flat_43.wav,0,True,1066,56,M,5,0.355215,134.741064
21011968,45,0,2024-02-28T17:28:59.872Z,male_vraiment_flat_43.wav,0,True,1066,56,M,6,0.426259,54.746527
21011968,45,0,2024-02-28T17:28:59.872Z,male_vraiment_flat_86.wav,1,False,1066,56,M,0,0.000000,85.260205
21011968,45,0,2024-02-28T17:28:59.872Z,male_vraiment_flat_86.wav,1,False,1066,56,M,1,0.071043,-4.684566
21011968,45,0,2024-02-28T17:28:59.872Z,male_vraiment_flat_86.wav,1,False,1066,56,M,2,0.142086,133.406345
21011968,45,0,2024-02-28T17:28:59.872Z,male_vraiment_flat_86.wav,1,False,1066,56,M,3,0.213129,110.454503
21011968,45,0,2024-02-28T17:28:59.872Z,male_vraiment_flat_86.wav,1,False,1066,56,M,4,0.284172,38.373367
21011968,45,0,2024-02-28T17:28:59.872Z,male_vraiment_flat_86.wav,1,False,1066,56,M,5,0.355215,75.992097
21011968,45,0,2024-02-28T17:28:59.872Z,male_vraiment_flat_86.wav,1,False,1066,56,M,6,0.426259,-87.651019
21011968,46,0,2024-02-28T17:28:59.872Z,male_vraiment_flat_154.wav,0,True,449,56,M,0,0.000000,-56.341735
21011968,46,0,2024-02-28T17:28:59.872Z,male_vraiment_flat_154.wav,0,True,449,56,M,1,0.071043,15.133004
21011968,46,0,2024-02-28T17:28:59.872Z,male_vraiment_flat_154.wav,0,True,449,56,M,2,0.142086,67.588138
21011968,46,0,2024-02-28T17:28:59.872Z,male_vraiment_flat_154.wav,0,True,449,56,M,3,0.213129,4.827765
21011968,46,0,2024-02-28T17:28:59.872Z,male_vraiment_flat_154.wav,0,True,449,56,M,4,0.284172,-119.124529
21011968,46,0,2024-02-28T17:28:59.872Z,male_vraiment_flat_154.wav,0,True,449,56,M,5,0.355215,137.124750
21011968,46,0,2024-02-28T17:28:59.872Z,male_vraiment_flat_154.wav,0,True,449,56,M,6,0.426259,-61.627299
21011968,46,0,2024-02-28T17:28:59.872Z,male_vraiment_flat_55.wav,1,False,449,56,M,0,0.000000,41.960803
21011968,46,0,2024-02-28T17:28:59.872Z,male_vraiment_flat_55.wav,1,False,449,56,M,1,0.071043,-15.216637
21011968,46,0,2024-02-28T17:28:59.872Z,male_vraiment_flat_55.wav,1,False,449,56,M,2,0.142086,-141.495937
21011968,46,0,2024-02-28T17:28:59.872Z,male_vraiment_flat_55.wav,1,False,449,56,M,3,0.213129,-73.120481
21011968,46,0,2024-02-28T17:28:59.872Z,male_vraiment_flat_55.wav,1,False,449,56,M,4,0.284172,-46.277227
21011968,46,0,2024-02-28T17:28:59.872Z,male_vraiment_flat_55.wav,1,False,449,56,M,5,0.355215,60.235867
21011968,46,0,2024-02-28T17:28:59.872Z,male_vraiment_flat_55.wav,1,False,449,56,M,6,0.426259,0.915299
21011968,47,0,2024-02-28T17:28:59.872Z,male_vraiment_flat_44.wav,0,True,360,56,M,0,0.000000,-41.207511
21011968,47,0,2024-02-28T17:28:59.872Z,male_vraiment_flat_44.wav,0,True,360,56,M,1,0.071043,-36.343841
21011968,47,0,2024-02-28T17:28:59.872Z,male_vraiment_flat_44.wav,0,True,360,56,M,2,0.142086,111.477084
21011968,47,0,2024-02-28T17:28:59.872Z,male_vraiment_flat_44.wav,0,True,360,56,M,3,0.213129,5.942406
21011968,47,0,2024-02-28T17:28:59.872Z,male_vraiment_flat_44.wav,0,True,360,56,M,4,0.284172,108.539673
21011968,47,0,2024-02-28T17:28:59.872Z,male_vraiment_flat_44.wav,0,True,360,56,M,5,0.355215,-120.732661
21011968,47,0,2024-02-28T17:28:59.872Z,male_vraiment_flat_44.wav,0,True,360,56,M,6,0.426259,-22.824839
21011968,47,0,2024-02-28T17:28:59.872Z,male_vraiment_flat_69.wav,1,False,360,56,M,0,0.000000,-3.170538
21011968,47,0,2024-02-28T17:28:59.872Z,male_vraiment_flat_69.wav,1,False,360,56,M,1,0.071043,35.318973
21011968,47,0,2024-02-28T17:28:59.872Z,male_vraiment_flat_69.wav,1,False,360,56,M,2,0.142086,9.650212
21011968,47,0,2024-02-28T17:28:59.872Z,male_vraiment_flat_69.wav,1,False,360,56,M,3,0.213129,140.461686
21011968,47,0,2024-02-28T17:28:59.872Z,male_vraiment_flat_69.wav,1,False,360,56,M,4,0.284172,-72.489288
21011968,47,0,2024-02-28T17:28:59.872Z,male_vraiment_flat_69.wav,1,False,360,56,M,5,0.355215,-111.567531
21011968,47,0,2024-02-28T17:28:59.872Z,male_vraiment_flat_69.wav,1,False,360,56,M,6,0.426259,62.840145
21011968,48,0,2024-02-28T17:28:59.872Z,male_vraiment_flat_68.wav,0,True,34,56,M,0,0.000000,-95.161618
21011968,48,0,2024-02-28T17:28:59.872Z,male_vraiment_flat_68.wav,0,True,34,56,M,1,0.071043,-119.152564
21011968,48,0,2024-02-28T17:28:59.872Z,male_vraiment_flat_68.wav,0,True,34,56,M,2,0.142086,18.051976
21011968,48,0,2024-02-28T17:28:59.872Z,male_vraiment_flat_68.wav,0,True,34,56,M,3,0.213129,-26.870716
21011968,48,0,2024-02-28T17:28:59.872Z,male_vraiment_flat_68.wav,0,True,34,56,M,4,0.284172,87.472746
21011968,48,0,2024-02-28T17:28:59.872Z,male_vraiment_flat_68.wav,0,True,34,56,M,5,0.355215,-56.607347
21011968,48,0,2024-02-28T17:28:59.872Z,male_vraiment_flat_68.wav,0,True,34,56,M,6,0.426259,148.066508
21011968,48,0,2024-02-28T17:28:59.872Z,male_vraiment_flat_184.wav,1,False,34,56,M,0,0.000000,86.245131
21011968,48,0,2024-02-28T17:28:59.872Z,male_vraiment_flat_184.wav,1,False,34,56,M,1,0.071043,106.604050
21011968,48,0,2024-02-28T17:28:59.872Z,male_vraiment_flat_184.wav,1,False,34,56,M,2,0.142086,-48.425154
21011968,48,0,2024-02-28T17:28:59.872Z,male_vraiment_flat_184.wav,1,False,34,56,M,3,0.213129,48.927001
21011968,48,0,2024-02-28T17:28:59.872Z,male_vraiment_flat_184.wav,1,False,34,56,M,4,0.284172,-82.972934
21011968,48,0,2024-02-28T17:28:59.872Z,male_vraiment_flat_184.wav,1,False,34,56,M,5,0.355215,73.552976
21011968,48,0,2024-02-28T17:28:59.872Z,male_vraiment_flat_184.wav,1,False,34,56,M,6,0.426259,-131.359115
21011968,49,0,2024-02-28T17:28:59.872Z,male_vraiment_flat_198.wav,0,True,177,56,M,0,0.000000,-103.630506
21011968,49,0,2024-02-28T17:28:59.872Z,male_vraiment_flat_198.wav,0,True,177,56,M,1,0.071043,-84.165473
21011968,49,0,2024-02-28T17:28:59.872Z,male_vraiment_flat_198.wav,0,True,177,56,M,2,0.142086,-14.577431
21011968,49,0,2024-02-28T17:28:59.872Z,male_vraiment_flat_198.wav,0,True,177,56,M,3,0.213129,28.146235
21011968,49,0,2024-02-28T17:28:59.872Z,male_vraiment_flat_198.wav,0,True,177,56,M,4,0.284172,-80.575165
21011968,49,0,2024-02-28T17:28:59.872Z,male_vraiment_flat_198.wav,0,True,177,56,M,5,0.355215,-32.118902
21011968,49,0,2024-02-28T17:28:59.872Z,male_vraiment_flat_198.wav,0,True,177,56,M,6,0.426259,78.303148
21011968,49,0,2024-02-28T17:28:59.872Z,male_vraiment_flat_36.wav,1,False,177,56,M,0,0.000000,-33.837960
21011968,49,0,2024-02-28T17:28:59.872Z,male_vraiment_flat_36.wav,1,False,177,56,M,1,0.071043,102.134309
21011968,49,0,2024-02-28T17:28:59.872Z,male_vraiment_flat_36.wav,1,False,177,56,M,2,0.142086,100.949665
21011968,49,0,2024-02-28T17:28:59.872Z,male_vraiment_flat_36.wav,1,False,177,56,M,3,0.213129,77.352428
21011968,49,0,2024-02-28T17:28:59.872Z,male_vraiment_flat_36.wav,1,False,177,56,M,4,0.284172,-1.995321
21011968,49,0,2024-02-28T17:28:59.872Z,male_vraiment_flat_36.wav,1,False,177,56,M,5,0.355215,-13.382838
21011968,49,0,2024-02-28T17:28:59.872Z,male_vraiment_flat_36.wav,1,False,177,56,M,6,0.426259,-42.807835
21011968,50,1,2024-02-28T17:28:59.872Z,male_vraiment_flat_10.wav,0,True,1814,56,M,0,0.000000,-59.283835
21011968,50,1,2024-02-28T17:28:59.872Z,male_vraiment_flat_10.wav,0,True,1814,56,M,1,0.071043,33.418752
21011968,50,1,2024-02-28T17:28:59.872Z,male_vraiment_flat_10.wav,0,True,1814,56,M,2,0.142086,-98.686452
21011968,50,1,2024-02-28T17:28:59.872Z,male_vraiment_flat_10.wav,0,True,1814,56,M,3,0.213129,137.870403
21011968,50,1,2024-02-28T17:28:59.872Z,male_vraiment_flat_10.wav,0,True,1814,56,M,4,0.284172,-113.384751
21011968,50,1,2024-02-28T17:28:59.872Z,male_vraiment_flat_10.wav,0,True,1814,56,M,5,0.355215,-122.497954
21011968,50,1,2024-02-28T17:28:59.872Z,male_vraiment_flat_10.wav,0,True,1814,56,M,6,0.426259,-121.154526
21011968,50,1,2024-02-28T17:28:59.872Z,male_vraiment_flat_70.wav,1,False,1814,56,M,0,0.000000,-95.640606
21011968,50,1,2024-02-28T17:28:59.872Z,male_vraiment_flat_70.wav,1,False,1814,56,M,1,0.071043,17.584667
21011968,50,1,2024-02-28T17:28:59.872Z,male_vraiment_flat_70.wav,1,False,1814,56,M,2,0.142086,9.439432
21011968,50,1,2024-02-28T17:28:59.872Z,male_vraiment_flat_70.wav,1,False,1814,56,M,3,0.213129,26.204853
21011968,50,1,2024-02-28T17:28:59.872Z,male_vraiment_flat_70.wav,1,False,1814,56,M,4,0.284172,19.735476
21011968,50,1,2024-02-28T17:28:59.872Z,male_vraiment_flat_70.wav,1,False,1814,56,M,5,0.355215,-45.465161
21011968,50,1,2024-02-28T17:28:59.872Z,male_vraiment_flat_70.wav,1,False,1814,56,M,6,0.426259,24.901866
21011968,51,1,2024-02-28T17:28:59.872Z,male_vraiment_flat_183.wav,0,False,1552,56,M,0,0.000000,102.527130
21011968,51,1,2024-02-28T17:28:59.872Z,male_vraiment_flat_183.wav,0,False,1552,56,M,1,0.071043,114.037020
21011968,51,1,2024-02-28T17:28:59.872Z,male_vraiment_flat_183.wav,0,False,1552,56,M,2,0.142086,-45.723055
21011968,51,1,2024-02-28T17:28:59.872Z,male_vraiment_flat_183.wav,0,False,1552,56,M,3,0.213129,-109.210749
21011968,51,1,2024-02-28T17:28:59.872Z,male_vraiment_flat_183.wav,0,False,1552,56,M,4,0.284172,-29.266312
21011968,51,1,2024-02-28T17:28:59.872Z,male_vraiment_flat_183.wav,0,False,1552,56,M,5,0.355215,-77.798514
21011968,51,1,2024-02-28T17:28:59.872Z,male_vraiment_flat_183.wav,0,False,1552,56,M,6,0.426259,-133.179439
21011968,51,1,2024-02-28T17:28:59.872Z,male_vraiment_flat_112.wav,1,True,1552,56,M,0,0.000000,40.318333
21011968,51,1,2024-02-28T17:28:59.872Z,male_vraiment_flat_112.wav,1,True,1552,56,M,1,0.071043,28.779991
21011968,51,1,2024-02-28T17:28:59.872Z,male_vraiment_flat_112.wav,1,True,1552,56,M,2,0.142086,-86.990654
21011968,51,1,2024-02-28T17:28:59.872Z,male_vraiment_flat_112.wav,1,True,1552,56,M,3,0.213129,-136.064498
21011968,51,1,2024-02-28T17:28:59.872Z,male_vraiment_flat_112.wav,1,True,1552,56,M,4,0.284172,89.286191
21011968,51,1,2024-02-28T17:28:59.872Z,male_vraiment_flat_112.wav,1,True,1552,56,M,5,0.355215,99.616935
21011968,51,1,2024-02-28T17:28:59.872Z,male_vraiment_flat_112.wav,1,True,1552,56,M,6,0.426259,-61.253639
21011968,52,1,2024-02-28T17:28:59.872Z,male_vraiment_flat_120.wav,0,True,677,56,M,0,0.000000,20.081065
21011968,52,1,2024-02-28T17:28:59.872Z,male_vraiment_flat_120.wav,0,True,677,56,M,1,0.071043,100.844988
21011968,52,1,2024-02-28T17:28:59.872Z,male_vraiment_flat_120.wav,0,True,677,56,M,2,0.142086,-34.199178
21011968,52,1,2024-02-28T17:28:59.872Z,male_vraiment_flat_120.wav,0,True,677,56,M,3,0.213129,-3.979999
21011968,52,1,2024-02-28T17:28:59.872Z,male_vraiment_flat_120.wav,0,True,677,56,M,4,0.284172,-132.448085
21011968,52,1,2024-02-28T17:28:59.872Z,male_vraiment_flat_120.wav,0,True,677,56,M,5,0.355215,-95.704719
21011968,52,1,2024-02-28T17:28:59.872Z,male_vraiment_flat_120.wav,0,True,677,56,M,6,0.426259,-2.125632
21011968,52,1,2024-02-28T17:28:59.872Z,male_vraiment_flat_85.wav,1,False,677,56,M,0,0.000000,16.220058
21011968,52,1,2024-02-28T17:28:59.872Z,male_vraiment_flat_85.wav,1,False,677,56,M,1,0.071043,97.172848
21011968,52,1,2024-02-28T17:28:59.872Z,male_vraiment_flat_85.wav,1,False,677,56,M,2,0.142086,121.919735
21011968,52,1,2024-02-28T17:28:59.872Z,male_vraiment_flat_85.wav,1,False,677,56,M,3,0.213129,69.049273
21011968,52,1,2024-02-28T17:28:59.872Z,male_vraiment_flat_85.wav,1,False,677,56,M,4,0.284172,124.256579
21011968,52,1,2024-02-28T17:28:59.872Z,male_vraiment_flat_85.wav,1,False,677,56,M,5,0.355215,30.981006
21011968,52,1,2024-02-28T17:28:59.872Z,male_vraiment_flat_85.wav,1,False,677,56,M,6,0.426259,-67.410158
21011968,53,1,2024-02-28T17:28:59.872Z,male_vraiment_flat_165.wav,0,True,262,56,M,0,0.000000,-133.486308
21011968,53,1,2024-02-28T17:28:59.872Z,male_vraiment_flat_165.wav,0,True,262,56,M,1,0.071043,-51.704384
21011968,53,1,2024-02-28T17:28:59.872Z,male_vraiment_flat_165.wav,0,True,262,56,M,2,0.142086,123.734410
21011968,53,1,2024-02-28T17:28:59.872Z,male_vraiment_flat_165.wav,0,True,262,56,M,3,0.213129,-122.063627
21011968,53,1,2024-02-28T17:28:59.872Z,male_vraiment_flat_165.wav,0,True,262,56,M,4,0.284172,105.373754
21011968,53,1,2024-02-28T17:28:59.872Z,male_vraiment_flat_165.wav,0,True,262,56,M,5,0.355215,42.489978
21011968,53,1,2024-02-28T17:28:59.872Z,male_vraiment_flat_165.wav,0,True,262,56,M,6,0.426259,65.536300
21011968,53,1,2024-02-28T17:28:59.872Z,male_vraiment_flat_170.wav,1,False,262,56,M,0,0.000000,88.489327
21011968,53,1,2024-02-28T17:28:59.872Z,male_vraiment_flat_170.wav,1,False,262,56,M,1,0.071043,-76.759591
21011968,53,1,2024-02-28T17:28:59.872Z,male_vraiment_flat_170.wav,1,False,262,56,M,2,0.142086,131.535458
21011968,53,1,2024-02-28T17:28:59.872Z,male_vraiment_flat_170.wav,1,False,262,56,M,3,0.213129,-66.304272
21011968,53,1,2024-02-28T17:28:59.872Z,male_vraiment_flat_170.wav,1,False,262,56,M,4,0.284172,82.842237
21011968,53,1,2024-02-28T17:28:59.872Z,male_vraiment_flat_170.wav,1,False,262,56,M,5,0.355215,39.682087
21011968,53,1,2024-02-28T17:28:59.872Z,male_vraiment_flat_170.wav,1,False,262,56,M,6,0.426259,-39.313076
21011968,54,1,2024-02-28T17:28:59.872Z,male_vraiment_flat_49.wav,0,True,310,56,M,0,0.000000,-83.600042
21011968,54,1,2024-02-28T17:28:59.872Z,male_vraiment_flat_49.wav,0,True,310,56,M,1,0.071043,-14.728623
21011968,54,1,2024-02-28T17:28:59.872Z,male_vraiment_flat_49.wav,0,True,310,56,M,2,0.142086,25.142138
21011968,54,1,2024-02-28T17:28:59.872Z,male_vraiment_flat_49.wav,0,True,310,56,M,3,0.213129,135.875151
21011968,54,1,2024-02-28T17:28:59.872Z,male_vraiment_flat_49.wav,0,True,310,56,M,4,0.284172,60.117986
21011968,54,1,2024-02-28T17:28:59.872Z,male_vraiment_flat_49.wav,0,True,310,56,M,5,0.355215,-135.086661
21011968,54,1,2024-02-28T17:28:59.872Z,male_vraiment_flat_49.wav,0,True,310,56,M,6,0.426259,-32.809615
21011968,54,1,2024-02-28T17:28:59.872Z,male_vraiment_flat_23.wav,1,False,310,56,M,0,0.000000,27.345676
21011968,54,1,2024-02-28T17:28:59.872Z,male_vraiment_flat_23.wav,1,False,310,56,M,1,0.071043,118.378449
21011968,54,1,2024-02-28T17:28:59.872Z,male_vraiment_flat_23.wav,1,False,310,56,M,2,0.142086,35.467907
21011968,54,1,2024-02-28T17:28:59.872Z,male_vraiment_flat_23.wav,1,False,310,56,M,3,0.213129,-5.979973
21011968,54,1,2024-02-28T17:28:59.872Z,male_vraiment_flat_23.wav,1,False,310,56,M,4,0.284172,18.578162
21011968,54,1,2024-02-28T17:28:59.872Z,male_vraiment_flat_23.wav,1,False,310,56,M,5,0.355215,-9.540782
21011968,54,1,2024-02-28T17:28:59.872Z,male_vraiment_flat_23.wav,1,False,310,56,M,6,0.426259,-13.092534
21011968,55,1,2024-02-28T17:28:59.872Z,male_vraiment_flat_152.wav,0,True,193,56,M,0,0.000000,-121.409464
21011968,55,1,2024-02-28T17:28:59.872Z,male_vraiment_flat_152.wav,0,True,193,56,M,1,0.071043,26.229918
21011968,55,1,2024-02-28T17:28:59.872Z,male_vraiment_flat_152.wav,0,True,193,56,M,2,0.142086,46.107283
21011968,55,1,2024-02-28T17:28:59.872Z,male_vraiment_flat_152.wav,0,True,193,56,M,3,0.213129,-122.378424
21011968,55,1,2024-02-28T17:28:59.872Z,male_vraiment_flat_152.wav,0,True,193,56,M,4,0.284172,64.911076
21011968,55,1,2024-02-28T17:28:59.872Z,male_vraiment_flat_152.wav,0,True,193,56,M,5,0.355215,129.744578
21011968,55,1,2024-02-28T17:28:59.872Z,male_vraiment_flat_152.wav,0,True,193,56,M,6,0.426259,51.632825
21011968,55,1,2024-02-28T17:28:59.872Z,male_vraiment_flat_138.wav,1,False,193,56,M,0,0.000000,-29.536298
21011968,55,1,2024-02-28T17:28:59.872Z,male_vraiment_flat_138.wav,1,False,193,56,M,1,0.071043,90.685935
21011968,55,1,2024-02-28T17:28:59.872Z,male_vraiment_flat_138.wav,1,False,193,56,M,2,0.142086,-77.044346
21011968,55,1,2024-02-28T17:28:59.872Z,male_vraiment_flat_138.wav,1,False,193,56,M,3,0.213129,-75.264885
21011968,55,1,2024-02-28T17:28:59.872Z,male_vraiment_flat_138.wav,1,False,193,56,M,4,0.284172,-129.490236
21011968,55,1,2024-02-28T17:28:59.872Z,male_vraiment_flat_138.wav,1,False,193,56,M,5,0.355215,-48.940612
21011968,55,1,2024-02-28T17:28:59.872Z,male_vraiment_flat_138.wav,1,False,193,56,M,6,0.426259,-95.647001
21011968,56,1,2024-02-28T17:28:59.872Z,male_vraiment_flat_146.wav,0,True,948,56,M,0,0.000000,92.610651
21011968,56,1,2024-02-28T17:28:59.872Z,male_vraiment_flat_146.wav,0,True,948,56,M,1,0.071043,40.250954
21011968,56,1,2024-02-28T17:28:59.872Z,male_vraiment_flat_146.wav,0,True,948,56,M,2,0.142086,99.988333
21011968,56,1,2024-02-28T17:28:59.872Z,male_vraiment_flat_146.wav,0,True,948,56,M,3,0.213129,115.543405
21011968,56,1,2024-02-28T17:28:59.872Z,male_vraiment_flat_146.wav,0,True,948,56,M,4,0.284172,-3.607960
21011968,56,1,2024-02-28T17:28:59.872Z,male_vraiment_flat_146.wav,0,True,948,56,M,5,0.355215,-91.494225
21011968,56,1,2024-02-28T17:28:59.872Z,male_vraiment_flat_146.wav,0,True,948,56,M,6,0.426259,-109.708123
21011968,56,1,2024-02-28T17:28:59.872Z,male_vraiment_flat_76.wav,1,False,948,56,M,0,0.000000,-119.681125
21011968,56,1,2024-02-28T17:28:59.872Z,male_vraiment_flat_76.wav,1,False,948,56,M,1,0.071043,66.441865
21011968,56,1,2024-02-28T17:28:59.872Z,male_vraiment_flat_76.wav,1,False,948,56,M,2,0.142086,-95.265303
21011968,56,1,2024-02-28T17:28:59.872Z,male_vraiment_flat_76.wav,1,False,948,56,M,3,0.213129,7.780656
21011968,56,1,2024-02-28T17:28:59.872Z,male_vraiment_flat_76.wav,1,False,948,56,M,4,0.284172,-90.368576
21011968,56,1,2024-02-28T17:28:59.872Z,male_vraiment_flat_76.wav,1,False,948,56,M,5,0.355215,-64.528472
21011968,56,1,2024-02-28T17:28:59.872Z,male_vraiment_flat_76.wav,1,False,948,56,M,6,0.426259,-137.293439
21011968,57,1,2024-02-28T17:28:59.872Z,male_vraiment_flat_115.wav,0,False,1389,56,M,0,0.000000,-100.568741
21011968,57,1,2024-02-28T17:28:59.872Z,male_vraiment_flat_115.wav,0,False,1389,56,M,1,0.071043,57.843647
21011968,57,1,2024-02-28T17:28:59.872Z,male_vraiment_flat_115.wav,0,False,1389,56,M,2,0.142086,-30.946862
21011968,57,1,2024-02-28T17:28:59.872Z,male_vraiment_flat_115.wav,0,False,1389,56,M,3,0.213129,-117.622484
21011968,57,1,2024-02-28T17:28:59.872Z,male_vraiment_flat_115.wav,0,False,1389,56,M,4,0.284172,12.634833
21011968,57,1,2024-02-28T17:28:59.872Z,male_vraiment_flat_115.wav,0,False,1389,56,M,5,0.355215,-81.533692
21011968,57,1,2024-02-28T17:28:59.872Z,male_vraiment_flat_115.wav,0,False,1389,56,M,6,0.426259,-72.293995
21011968,57,1,2024-02-28T17:28:59.872Z,male_vraiment_flat_104.wav,1,True,1389,56,M,0,0.000000,-70.174686
21011968,57,1,2024-02-28T17:28:59.872Z,male_vraiment_flat_104.wav,1,True,1389,56,M,1,0.071043,-64.753986
21011968,57,1,2024-02-28T17:28:59.872Z,male_vraiment_flat_104.wav,1,True,1389,56,M,2,0.142086,-116.293490
21011968,57,1,2024-02-28T17:28:59.872Z,male_vraiment_flat_104.wav,1,True,1389,56,M,3,0.213129,-63.059369
21011968,57,1,2024-02-28T17:28:59.872Z,male_vraiment_flat_104.wav,1,True,1389,56,M,4,0.284172,102.899256
21011968,57,1,2024-02-28T17:28:59.872Z,male_vraiment_flat_104.wav,1,True,1389,56,M,5,0.355215,-142.936640
21011968,57,1,2024-02-28T17:28:59.872Z,male_vraiment_flat_104.wav,1,True,1389,56,M,6,0.426259,-16.173865
21011968,58,1,2024-02-28T17:28:59.872Z,male_vraiment_flat_182.wav,0,True,458,56,M,0,0.000000,20.855134
21011968,58,1,2024-02-28T17:28:59.872Z,male_vraiment_flat_182.wav,0,True,458,56,M,1,0.071043,131.000404
21011968,58,1,2024-02-28T17:28:59.872Z,male_vraiment_flat_182.wav,0,True,458,56,M,2,0.142086,-24.691908
21011968,58,1,2024-02-28T17:28:59.872Z,male_vraiment_flat_182.wav,0,True,458,56,M,3,0.213129,128.422786
21011968,58,1,2024-02-28T17:28:59.872Z,male_vraiment_flat_182.wav,0,True,458,56,M,4,0.284172,-128.848387
21011968,58,1,2024-02-28T17:28:59.872Z,male_vraiment_flat_182.wav,0,True,458,56,M,5,0.355215,118.792618
21011968,58,1,2024-02-28T17:28:59.872Z,male_vraiment_flat_182.wav,0,True,458,56,M,6,0.426259,-92.475253
21011968,58,1,2024-02-28T17:28:59.872Z,male_vraiment_flat_83.wav,1,False,458,56,M,0,0.000000,-23.907946
21011968,58,1,2024-02-28T17:28:59.872Z,male_vraiment_flat_83.wav,1,False,458,56,M,1,0.071043,-0.791729
21011968,58,1,2024-02-28T17:28:59.872Z,male_vraiment_flat_83.wav,1,False,458,56,M,2,0.142086,23.610634
21011968,58,1,2024-02-28T17:28:59.872Z,male_vraiment_flat_83.wav,1,False,458,56,M,3,0.213129,-35.411923
21011968,58,1,2024-02-28T17:28:59.872Z,male_vraiment_flat_83.wav,1,False,458,56,M,4,0.284172,101.109402
21011968,58,1,2024-02-28T17:28:59.872Z,male_vraiment_flat_83.wav,1,False,458,56,M,5,0.355215,-51.929212
21011968,58,1,2024-02-28T17:28:59.872Z,male_vraiment_flat_83.wav,1,False,458,56,M,6,0.426259,-104.958378
21011968,59,1,2024-02-28T17:28:59.872Z,male_vraiment_flat_127.wav,0,True,97,56,M,0,0.000000,143.598511
21011968,59,1,2024-02-28T17:28:59.872Z,male_vraiment_flat_127.wav,0,True,97,56,M,1,0.071043,23.645136
21011968,59,1,2024-02-28T17:28:59.872Z,male_vraiment_flat_127.wav,0,True,97,56,M,2,0.142086,-118.740497
21011968,59,1,2024-02-28T17:28:59.872Z,male_vraiment_flat_127.wav,0,True,97,56,M,3,0.213129,-109.046436
21011968,59,1,2024-02-28T17:28:59.872Z,male_vraiment_flat_127.wav,0,True,97,56,M,4,0.284172,66.022521
21011968,59,1,2024-02-28T17:28:59.872Z,male_vraiment_flat_127.wav,0,True,97,56,M,5,0.355215,-13.059175
21011968,59,1,2024-02-28T17:28:59.872Z,male_vraiment_flat_127.wav,0,True,97,56,M,6,0.426259,22.700660
21011968,59,1,2024-02-28T17:28:59.872Z,male_vraiment_flat_105.wav,1,False,97,56,M,0,0.000000,125.556012
21011968,59,1,2024-02-28T17:28:59.872Z,male_vraiment_flat_105.wav,1,False,97,56,M,1,0.071043,102.885047
21011968,59,1,2024-02-28T17:28:59.872Z,male_vraiment_flat_105.wav,1,False,97,56,M,2,0.142086,-23.318884
21011968,59,1,2024-02-28T17:28:59.872Z,male_vraiment_flat_105.wav,1,False,97,56,M,3,0.213129,96.270063
21011968,59,1,2024-02-28T17:28:59.872Z,male_vraiment_flat_105.wav,1,False,97,56,M,4,0.284172,-32.661499
21011968,59,1,2024-02-28T17:28:59.872Z,male_vraiment_flat_105.wav,1,False,97,56,M,5,0.355215,-7.829717
21011968,59,1,2024-02-28T17:28:59.872Z,male_vraiment_flat_105.wav,1,False,97,56,M,6,0.426259,-13.047753
21011968,60,1,2024-02-28T17:28:59.872Z,male_vraiment_flat_124.wav,0,True,799,56,M,0,0.000000,-7.963711
21011968,60,1,2024-02-28T17:28:59.872Z,male_vraiment_flat_124.wav,0,True,799,56,M,1,0.071043,-56.081883
21011968,60,1,2024-02-28T17:28:59.872Z,male_vraiment_flat_124.wav,0,True,799,56,M,2,0.142086,-78.115299
21011968,60,1,2024-02-28T17:28:59.872Z,male_vraiment_flat_124.wav,0,True,799,56,M,3,0.213129,-24.811935
21011968,60,1,2024-02-28T17:28:59.872Z,male_vraiment_flat_124.wav,0,True,799,56,M,4,0.284172,-9.003272
21011968,60,1,2024-02-28T17:28:59.872Z,male_vraiment_flat_124.wav,0,True,799,56,M,5,0.355215,13.712214
21011968,60,1,2024-02-28T17:28:59.872Z,male_vraiment_flat_124.wav,0,True,799,56,M,6,0.426259,140.048390
21011968,60,1,2024-02-28T17:28:59.872Z,male_vraiment_flat_62.wav,1,False,799,56,M,0,0.000000,-118.782832
21011968,60,1,2024-02-28T17:28:59.872Z,male_vraiment_flat_62.wav,1,False,799,56,M,1,0.071043,-35.995173
21011968,60,1,2024-02-28T17:28:59.872Z,male_vraiment_flat_62.wav,1,False,799,56,M,2,0.142086,21.697311
21011968,60,1,2024-02-28T17:28:59.872Z,male_vraiment_flat_62.wav,1,False,799,56,M,3,0.213129,22.125919
21011968,60,1,2024-02-28T17:28:59.872Z,male_vraiment_flat_62.wav,1,False,799,56,M,4,0.284172,-42.995885
21011968,60,1,2024-02-28T17:28:59.872Z,male_vraiment_flat_62.wav,1,False,799,56,M,5,0.355215,-84.376770
21011968,60,1,2024-02-28T17:28:59.872Z,male_vraiment_flat_62.wav,1,False,799,56,M,6,0.426259,-12.230862
21011968,61,1,2024-02-28T17:28:59.872Z,male_vraiment_flat_99.wav,0,True,274,56,M,0,0.000000,-67.009894
21011968,61,1,2024-02-28T17:28:59.872Z,male_vraiment_flat_99.wav,0,True,274,56,M,1,0.071043,-124.385437
21011968,61,1,2024-02-28T17:28:59.872Z,male_vraiment_flat_99.wav,0,True,274,56,M,2,0.142086,-32.338754
21011968,61,1,2024-02-28T17:28:59.872Z,male_vraiment_flat_99.wav,0,True,274,56,M,3,0.213129,-145.840775
21011968,61,1,2024-02-28T17:28:59.872Z,male_vraiment_flat_99.wav,0,True,274,56,M,4,0.284172,-6.786611
21011968,61,1,2024-02-28T17:28:59.872Z,male_vraiment_flat_99.wav,0,True,274,56,M,5,0.355215,89.278278
21011968,61,1,2024-02-28T17:28:59.872Z,male_vraiment_flat_99.wav,0,True,274,56,M,6,0.426259,-47.823672
21011968,61,1,2024-02-28T17:28:59.872Z,male_vraiment_flat_11.wav,1,False,274,56,M,0,0.000000,106.632802
21011968,61,1,2024-02-28T17:28:59.872Z,male_vraiment_flat_11.wav,1,False,274,56,M,1,0.071043,30.235531
21011968,61,1,2024-02-28T17:28:59.872Z,male_vraiment_flat_11.wav,1,False,274,56,M,2,0.142086,-31.934811
21011968,61,1,2024-02-28T17:28:59.872Z,male_vraiment_flat_11.wav,1,False,274,56,M,3,0.213129,-70.817469
21011968,61,1,2024-02-28T17:28:59.872Z,male_vraiment_flat_11.wav,1,False,274,56,M,4,0.284172,-134.947845
21011968,61,1,2024-02-28T17:28:59.872Z,male_vraiment_flat_11.wav,1,False,274,56,M,5,0.355215,-61.866249
21011968,61,1,2024-02-28T17:28:59.872Z,male_vraiment_flat_11.wav,1,False,274,56,M,6,0.426259,61.370028
21011968,62,1,2024-02-28T17:28:59.872Z,male_vraiment_flat_98.wav,0,True,1688,56,M,0,0.000000,102.170357
21011968,62,1,2024-02-28T17:28:59.872Z,male_vraiment_flat_98.wav,0,True,1688,56,M,1,0.071043,20.715456
21011968,62,1,2024-02-28T17:28:59.872Z,male_vraiment_flat_98.wav,0,True,1688,56,M,2,0.142086,81.972821
21011968,62,1,2024-02-28T17:28:59.872Z,male_vraiment_flat_98.wav,0,True,1688,56,M,3,0.213129,-125.018297
21011968,62,1,2024-02-28T17:28:59.872Z,male_vraiment_flat_98.wav,0,True,1688,56,M,4,0.284172,103.374214
21011968,62,1,2024-02-28T17:28:59.872Z,male_vraiment_flat_98.wav,0,True,1688,56,M,5,0.355215,-81.704677
21011968,62,1,2024-02-28T17:28:59.872Z,male_vraiment_flat_98.wav,0,True,1688,56,M,6,0.426259,85.109238
21011968,62,1,2024-02-28T17:28:59.872Z,male_vraiment_flat_9.wav,1,False,1688,56,M,0,0.000000,85.332288
21011968,62,1,2024-02-28T17:28:59.872Z,male_vraiment_flat_9.wav,1,False,1688,56,M,1,0.071043,-113.949520
21011968,62,1,2024-02-28T17:28:59.872Z,male_vraiment_flat_9.wav,1,False,1688,56,M,2,0.142086,22.848070
21011968,62,1,2024-02-28T17:28:59.872Z,male_vraiment_flat_9.wav,1,False,1688,56,M,3,0.213129,-135.528843
21011968,62,1,2024-02-28T17:28:59.872Z,male_vraiment_flat_9.wav,1,False,1688,56,M,4,0.284172,76.460330
21011968,62,1,2024-02-28T17:28:59.872Z,male_vraiment_flat_9.wav,1,False,1688,56,M,5,0.355215,72.455461
21011968,62,1,2024-02-28T17:28:59.872Z,male_vraiment_flat_9.wav,1,False,1688,56,M,6,0.426259,-135.542556
21011968,63,1,2024-02-28T17:28:59.872Z,male_vraiment_flat_193.wav,0,True,793,56,M,0,0.000000,-104.498046
21011968,63,1,2024-02-28T17:28:59.872Z,male_vraiment_flat_193.wav,0,True,793,56,M,1,0.071043,27.454942
21011968,63,1,2024-02-28T17:28:59.872Z,male_vraiment_flat_193.wav,0,True,793,56,M,2,0.142086,-81.084240
21011968,63,1,2024-02-28T17:28:59.872Z,male_vraiment_flat_193.wav,0,True,793,56,M,3,0.213129,-66.105426
21011968,63,1,2024-02-28T17:28:59.872Z,male_vraiment_flat_193.wav,0,True,793,56,M,4,0.284172,-18.843418
21011968,63,1,2024-02-28T17:28:59.872Z,male_vraiment_flat_193.wav,0,True,793,56,M,5,0.355215,59.447118
21011968,63,1,2024-02-28T17:28:59.872Z,male_vraiment_flat_193.wav,0,True,793,56,M,6,0.426259,86.357299
21011968,63,1,2024-02-28T17:28:59.872Z,male_vraiment_flat_114.wav,1,False,793,56,M,0,0.000000,-107.614700
21011968,63,1,2024-02-28T17:28:59.872Z,male_vraiment_flat_114.wav,1,False,793,56,M,1,0.071043,-121.606705
21011968,63,1,2024-02-28T17:28:59.872Z,male_vraiment_flat_114.wav,1,False,793,56,M,2,0.142086,26.820871
21011968,63,1,2024-02-28T17:28:59.872Z,male_vraiment_flat_114.wav,1,False,793,56,M,3,0.213129,42.957584
21011968,63,1,2024-02-28T17:28:59.872Z,male_vraiment_flat_114.wav,1,False,793,56,M,4,0.284172,-48.053802
21011968,63,1,2024-02-28T17:28:59.872Z,male_vraiment_flat_114.wav,1,False,793,56,M,5,0.355215,-10.474627
21011968,63,1,2024-02-28T17:28:59.872Z,male_vraiment_flat_114.wav,1,False,793,56,M,6,0.426259,-131.069216
21011968,64,1,2024-02-28T17:28:59.872Z,male_vraiment_flat_89.wav,0,True,387,56,M,0,0.000000,109.966045
21011968,64,1,2024-02-28T17:28:59.872Z,male_vraiment_flat_89.wav,0,True,387,56,M,1,0.071043,3.952874
21011968,64,1,2024-02-28T17:28:59.872Z,male_vraiment_flat_89.wav,0,True,387,56,M,2,0.142086,14.687736
21011968,64,1,2024-02-28T17:28:59.872Z,male_vraiment_flat_89.wav,0,True,387,56,M,3,0.213129,-59.041416
21011968,64,1,2024-02-28T17:28:59.872Z,male_vraiment_flat_89.wav,0,True,387,56,M,4,0.284172,-42.151762
21011968,64,1,2024-02-28T17:28:59.872Z,male_vraiment_flat_89.wav,0,True,387,56,M,5,0.355215,-148.779325
21011968,64,1,2024-02-28T17:28:59.872Z,male_vraiment_flat_89.wav,0,True,387,56,M,6,0.426259,-61.315288
21011968,64,1,2024-02-28T17:28:59.872Z,male_vraiment_flat_90.wav,1,False,387,56,M,0,0.000000,39.615876
21011968,64,1,2024-02-28T17:28:59.872Z,male_vraiment_flat_90.wav,1,False,387,56,M,1,0.071043,-130.464689
21011968,64,1,2024-02-28T17:28:59.872Z,male_vraiment_flat_90.wav,1,False,387,56,M,2,0.142086,46.838016
21011968,64,1,2024-02-28T17:28:59.872Z,male_vraiment_flat_90.wav,1,False,387,56,M,3,0.213129,104.861302
21011968,64,1,2024-02-28T17:28:59.872Z,male_vraiment_flat_90.wav,1,False,387,56,M,4,0.284172,-102.459680
21011968,64,1,2024-02-28T17:28:59.872Z,male_vraiment_flat_90.wav,1,False,387,56,M,5,0.355215,-91.275011
21011968,64,1,2024-02-28T17:28:59.872Z,male_vraiment_flat_90.wav,1,False,387,56,M,6,0.426259,45.823426
21011968,65,1,2024-02-28T17:28:59.872Z,male_vraiment_flat_147.wav,0,True,954,56,M,0,0.000000,-109.572708
21011968,65,1,2024-02-28T17:28:59.872Z,male_vraiment_flat_147.wav,0,True,954,56,M,1,0.071043,-50.943910
21011968,65,1,2024-02-28T17:28:59.872Z,male_vraiment_flat_147.wav,0,True,954,56,M,2,0.142086,145.950821
21011968,65,1,2024-02-28T17:28:59.872Z,male_vraiment_flat_147.wav,0,True,954,56,M,3,0.213129,141.813801
21011968,65,1,2024-02-28T17:28:59.872Z,male_vraiment_flat_147.wav,0,True,954,56,M,4,0.284172,53.597843
21011968,65,1,2024-02-28T17:28:59.872Z,male_vraiment_flat_147.wav,0,True,954,56,M,5,0.355215,-21.310214
21011968,65,1,2024-02-28T17:28:59.872Z,male_vraiment_flat_147.wav,0,True,954,56,M,6,0.426259,-94.477021
21011968,65,1,2024-02-28T17:28:59.872Z,male_vraiment_flat_93.wav,1,False,954,56,M,0,0.000000,89.760217
21011968,65,1,2024-02-28T17:28:59.872Z,male_vraiment_flat_93.wav,1,False,954,56,M,1,0.071043,18.591855
21011968,65,1,2024-02-28T17:28:59.872Z,male_vraiment_flat_93.wav,1,False,954,56,M,2,0.142086,63.582537
21011968,65,1,2024-02-28T17:28:59.872Z,male_vraiment_flat_93.wav,1,False,954,56,M,3,0.213129,147.491611
21011968,65,1,2024-02-28T17:28:59.872Z,male_vraiment_flat_93.wav,1,False,954,56,M,4,0.284172,-113.128196
21011968,65,1,2024-02-28T17:28:59.872Z,male_vraiment_flat_93.wav,1,False,954,56,M,5,0.355215,12.197118
21011968,65,1,2024-02-28T17:28:59.872Z,male_vraiment_flat_93.wav,1,False,954,56,M,6,0.426259,-36.730637
21011968,66,1,2024-02-28T17:28:59.872Z,male_vraiment_flat_50.wav,0,True,325,56,M,0,0.000000,96.336182
21011968,66,1,2024-02-28T17:28:59.872Z,male_vraiment_flat_50.wav,0,True,325,56,M,1,0.071043,-104.561128
21011968,66,1,2024-02-28T17:28:59.872Z,male_vraiment_flat_50.wav,0,True,325,56,M,2,0.142086,-130.066913
21011968,66,1,2024-02-28T17:28:59.872Z,male_vraiment_flat_50.wav,0,True,325,56,M,3,0.213129,-24.308766
21011968,66,1,2024-02-28T17:28:59.872Z,male_vraiment_flat_50.wav,0,True,325,56,M,4,0.284172,40.127472
21011968,66,1,2024-02-28T17:28:59.872Z,male_vraiment_flat_50.wav,0,True,325,56,M,5,0.355215,49.388454
21011968,66,1,2024-02-28T17:28:59.872Z,male_vraiment_flat_50.wav,0,True,325,56,M,6,0.426259,116.704022
21011968,66,1,2024-02-28T17:28:59.872Z,male_vraiment_flat_51.wav,1,False,325,56,M,0,0.000000,130.517111
21011968,66,1,2024-02-28T17:28:59.872Z,male_vraiment_flat_51.wav,1,False,325,56,M,1,0.071043,138.869679
21011968,66,1,2024-02-28T17:28:59.872Z,male_vraiment_flat_51.wav,1,False,325,56,M,2,0.142086,-34.276776
21011968,66,1,2024-02-28T17:28:59.872Z,male_vraiment_flat_51.wav,1,False,325,56,M,3,0.213129,76.935346
21011968,66,1,2024-02-28T17:28:59.872Z,male_vraiment_flat_51.wav,1,False,325,56,M,4,0.284172,-118.523911
21011968,66,1,2024-02-28T17:28:59.872Z,male_vraiment_flat_51.wav,1,False,325,56,M,5,0.355215,-103.328524
21011968,66,1,2024-02-28T17:28:59.872Z,male_vraiment_flat_51.wav,1,False,325,56,M,6,0.426259,-14.442096
21011968,67,1,2024-02-28T17:28:59.872Z,male_vraiment_flat_128.wav,0,True,913,56,M,0,0.000000,-144.911109
21011968,67,1,2024-02-28T17:28:59.872Z,male_vraiment_flat_128.wav,0,True,913,56,M,1,0.071043,-110.844671
21011968,67,1,2024-02-28T17:28:59.872Z,male_vraiment_flat_128.wav,0,True,913,56,M,2,0.142086,35.068695
21011968,67,1,2024-02-28T17:28:59.872Z,male_vraiment_flat_128.wav,0,True,913,56,M,3,0.213129,-95.248162
21011968,67,1,2024-02-28T17:28:59.872Z,male_vraiment_flat_128.wav,0,True,913,56,M,4,0.284172,-45.012706
21011968,67,1,2024-02-28T17:28:59.872Z,male_vraiment_flat_128.wav,0,True,913,56,M,5,0.355215,79.801624
21011968,67,1,2024-02-28T17:28:59.872Z,male_vraiment_flat_128.wav,0,True,913,56,M,6,0.426259,-47.761682
21011968,67,1,2024-02-28T17:28:59.872Z,male_vraiment_flat_78.wav,1,False,913,56,M,0,0.000000,80.055785
21011968,67,1,2024-02-28T17:28:59.872Z,male_vraiment_flat_78.wav,1,False,913,56,M,1,0.071043,117.831593
21011968,67,1,2024-02-28T17:28:59.872Z,male_vraiment_flat_78.wav,1,False,913,56,M,2,0.142086,-32.666549
21011968,67,1,2024-02-28T17:28:59.872Z,male_vraiment_flat_78.wav,1,False,913,56,M,3,0.213129,67.905321
21011968,67,1,2024-02-28T17:28:59.872Z,male_vraiment_flat_78.wav,1,False,913,56,M,4,0.284172,84.716683
21011968,67,1,2024-02-28T17:28:59.872Z,male_vraiment_flat_78.wav,1,False,913,56,M,5,0.355215,30.832945
21011968,67,1,2024-02-28T17:28:59.872Z,male_vraiment_flat_78.wav,1,False,913,56,M,6,0.426259,87.837740
21011968,68,1,2024-02-28T17:28:59.872Z,male_vraiment_flat_37.wav,0,True,299,56,M,0,0.000000,-50.449081
21011968,68,1,2024-02-28T17:28:59.872Z,male_vraiment_flat_37.wav,0,True,299,56,M,1,0.071043,28.423389
21011968,68,1,2024-02-28T17:28:59.872Z,male_vraiment_flat_37.wav,0,True,299,56,M,2,0.142086,-105.344692
21011968,68,1,2024-02-28T17:28:59.872Z,male_vraiment_flat_37.wav,0,True,299,56,M,3,0.213129,-99.811505
21011968,68,1,2024-02-28T17:28:59.872Z,male_vraiment_flat_37.wav,0,True,299,56,M,4,0.284172,142.698740
21011968,68,1,2024-02-28T17:28:59.872Z,male_vraiment_flat_37.wav,0,True,299,56,M,5,0.355215,-90.971946
21011968,68,1,2024-02-28T17:28:59.872Z,male_vraiment_flat_37.wav,0,True,299,56,M,6,0.426259,19.642948
21011968,68,1,2024-02-28T17:28:59.872Z,male_vraiment_flat_82.wav,1,False,299,56,M,0,0.000000,14.171085
21011968,68,1,2024-02-28T17:28:59.872Z,male_vraiment_flat_82.wav,1,False,299,56,M,1,0.071043,-68.153896
