subj,trial,block,date,stim,stim_order,response,rt,age,sex,param_index,segment_time,pitch
03051969,0,0,2024-02-27T21:09:38.271Z,male_vraiment_flat_60.wav,0,True,4623,54,féminin,0,0.000000,-89.296237
03051969,0,0,2024-02-27T21:09:38.271Z,male_vraiment_flat_60.wav,0,True,4623,54,féminin,1,0.071043,0.647875
03051969,0,0,2024-02-27T21:09:38.271Z,male_vraiment_flat_60.wav,0,True,4623,54,féminin,2,0.142086,-124.228045
03051969,0,0,2024-02-27T21:09:38.271Z,male_vraiment_flat_60.wav,0,True,4623,54,féminin,3,0.213129,-147.365900
03051969,0,0,2024-02-27T21:09:38.271Z,male_vraiment_flat_60.wav,0,True,4623,54,féminin,4,0.284172,-7.428030
03051969,0,0,2024-02-27T21:09:38.271Z,male_vraiment_flat_60.wav,0,True,4623,54,féminin,5,0.355215,-42.828577
03051969,0,0,2024-02-27T21:09:38.271Z,male_vraiment_flat_60.wav,0,True,4623,54,féminin,6,0.426259,-114.882786
03051969,0,0,2024-02-27T21:09:38.271Z,male_vraiment_flat_20.wav,1,False,4623,54,féminin,0,0.000000,-58.370476
03051969,0,0,2024-02-27T21:09:38.271Z,male_vraiment_flat_20.wav,1,False,4623,54,féminin,1,0.071043,112.073529
03051969,0,0,2024-02-27T21:09:38.271Z,male_vraiment_flat_20.wav,1,False,4623,54,féminin,2,0.142086,29.472628
03051969,0,0,2024-02-27T21:09:38.271Z,male_vraiment_flat_20.wav,1,False,4623,54,féminin,3,0.213129,-22.374222
03051969,0,0,2024-02-27T21:09:38.271Z,male_vraiment_flat_20.wav,1,False,4623,54,féminin,4,0.284172,-146.515998
03051969,0,0,2024-02-27T21:09:38.271Z,male_vraiment_flat_20.wav,1,False,4623,54,féminin,5,0.355215,47.280720
03051969,0,0,2024-02-27T21:09:38.271Z,male_vraiment_flat_20.wav,1,False,4623,54,féminin,6,0.426259,140.553925
03051969,1,0,2024-02-27T21:09:38.271Z,male_vraiment_flat_188.wav,0,False,5276,54,féminin,0,0.000000,-11.484944
03051969,1,0,2024-02-27T21:09:38.271Z,male_vraiment_flat_188.wav,0,False,5276,54,féminin,1,0.071043,-70.368872
03051969,1,0,2024-02-27T21:09:38.271Z,male_vraiment_flat_188.wav,0,False,5276,54,féminin,2,0.142086,-35.616146
03051969,1,0,2024-02-27T21:09:38.271Z,male_vraiment_flat_188.wav,0,False,5276,54,féminin,3,0.213129,0.109627
03051969,1,0,2024-02-27T21:09:38.271Z,male_vraiment_flat_188.wav,0,False,5276,54,féminin,4,0.284172,2.553157
03051969,1,0,2024-02-27T21:09:38.271Z,male_vraiment_flat_188.wav,0,False,5276,54,féminin,5,0.355215,-21.302793
03051969,1,0,2024-02-27T21:09:38.271Z,male_vraiment_flat_188.wav,0,False,5276,54,féminin,6,0.426259,-116.307336
03051969,1,0,2024-02-27T21:09:38.271Z,male_vraiment_flat_156.wav,1,True,5276,54,féminin,0,0.000000,62.995907
03051969,1,0,2024-02-27T21:09:38.271Z,male_vraiment_flat_156.wav,1,True,5276,54,féminin,1,0.071043,-119.801161
03051969,1,0,2024-02-27T21:09:38.271Z,male_vraiment_flat_156.wav,1,True,5276,54,féminin,2,0.142086,-125.261471
03051969,1,0,2024-02-27T21:09:38.271Z,male_vraiment_flat_156.wav,1,True,5276,54,féminin,3,0.213129,110.918732
03051969,1,0,2024-02-27T21:09:38.271Z,male_vraiment_flat_156.wav,1,True,5276,54,féminin,4,0.284172,-27.635219
03051969,1,0,2024-02-27T21:09:38.271Z,male_vraiment_flat_156.wav,1,True,5276,54,féminin,5,0.355215,57.926930
03051969,1,0,2024-02-27T21:09:38.271Z,male_vraiment_flat_156.wav,1,True,5276,54,féminin,6,0.426259,-85.703842
03051969,2,0,2024-02-27T21:09:38.271Z,male_vraiment_flat_4.wav,0,True,2420,54,féminin,0,0.000000,98.226066
03051969,2,0,2024-02-27T21:09:38.271Z,male_vraiment_flat_4.wav,0,True,2420,54,féminin,1,0.071043,119.322928
03051969,2,0,2024-02-27T21:09:38.271Z,male_vraiment_flat_4.wav,0,True,2420,54,féminin,2,0.142086,-139.339853
03051969,2,0,2024-02-27T21:09:38.271Z,male_vraiment_flat_4.wav,0,True,2420,54,féminin,3,0.213129,-46.932317
03051969,2,0,2024-02-27T21:09:38.271Z,male_vraiment_flat_4.wav,0,True,2420,54,féminin,4,0.284172,-13.288809
03051969,2,0,2024-02-27T21:09:38.271Z,male_vraiment_flat_4.wav,0,True,2420,54,féminin,5,0.355215,94.861826
03051969,2,0,2024-02-27T21:09:38.271Z,male_vraiment_flat_4.wav,0,True,2420,54,féminin,6,0.426259,-84.397607
03051969,2,0,2024-02-27T21:09:38.271Z,male_vraiment_flat_19.wav,1,False,2420,54,féminin,0,0.000000,-23.596543
03051969,2,0,2024-02-27T21:09:38.271Z,male_vraiment_flat_19.wav,1,False,2420,54,féminin,1,0.071043,-71.824414
03051969,2,0,2024-02-27T21:09:38.271Z,male_vraiment_flat_19.wav,1,False,2420,54,féminin,2,0.142086,88.506579
03051969,2,0,2024-02-27T21:09:38.271Z,male_vraiment_flat_19.wav,1,False,2420,54,féminin,3,0.213129,-79.935804
03051969,2,0,2024-02-27T21:09:38.271Z,male_vraiment_flat_19.wav,1,False,2420,54,féminin,4,0.284172,97.974212
03051969,2,0,2024-02-27T21:09:38.271Z,male_vraiment_flat_19.wav,1,False,2420,54,féminin,5,0.355215,-89.439384
03051969,2,0,2024-02-27T21:09:38.271Z,male_vraiment_flat_19.wav,1,False,2420,54,féminin,6,0.426259,-131.198163
03051969,3,0,2024-02-27T21:09:38.271Z,male_vraiment_flat_111.wav,0,False,2751,54,féminin,0,0.000000,-76.898484
03051969,3,0,2024-02-27T21:09:38.271Z,male_vraiment_flat_111.wav,0,False,2751,54,féminin,1,0.071043,128.576704
03051969,3,0,2024-02-27T21:09:38.271Z,male_vraiment_flat_111.wav,0,False,2751,54,féminin,2,0.142086,84.475821
03051969,3,0,2024-02-27T21:09:38.271Z,male_vraiment_flat_111.wav,0,False,2751,54,féminin,3,0.213129,13.962019
03051969,3,0,2024-02-27T21:09:38.271Z,male_vraiment_flat_111.wav,0,False,2751,54,féminin,4,0.284172,80.950376
03051969,3,0,2024-02-27T21:09:38.271Z,male_vraiment_flat_111.wav,0,False,2751,54,féminin,5,0.355215,105.627204
03051969,3,0,2024-02-27T21:09:38.271Z,male_vraiment_flat_111.wav,0,False,2751,54,féminin,6,0.426259,86.259873
03051969,3,0,2024-02-27T21:09:38.271Z,male_vraiment_flat_193.wav,1,True,2751,54,féminin,0,0.000000,-104.498046
03051969,3,0,2024-02-27T21:09:38.271Z,male_vraiment_flat_193.wav,1,True,2751,54,féminin,1,0.071043,27.454942
03051969,3,0,2024-02-27T21:09:38.271Z,male_vraiment_flat_193.wav,1,True,2751,54,féminin,2,0.142086,-81.084240
03051969,3,0,2024-02-27T21:09:38.271Z,male_vraiment_flat_193.wav,1,True,2751,54,féminin,3,0.213129,-66.105426
03051969,3,0,2024-02-27T21:09:38.271Z,male_vraiment_flat_193.wav,1,True,2751,54,féminin,4,0.284172,-18.843418
03051969,3,0,2024-02-27T21:09:38.271Z,male_vraiment_flat_193.wav,1,True,2751,54,féminin,5,0.355215,59.447118
03051969,3,0,2024-02-27T21:09:38.271Z,male_vraiment_flat_193.wav,1,True,2751,54,féminin,6,0.426259,86.357299
03051969,4,0,2024-02-27T21:09:38.271Z,male_vraiment_flat_80.wav,0,True,1320,54,féminin,0,0.000000,74.549472
03051969,4,0,2024-02-27T21:09:38.271Z,male_vraiment_flat_80.wav,0,True,1320,54,féminin,1,0.071043,28.548945
03051969,4,0,2024-02-27T21:09:38.271Z,male_vraiment_flat_80.wav,0,True,1320,54,féminin,2,0.142086,-70.639605
03051969,4,0,2024-02-27T21:09:38.271Z,male_vraiment_flat_80.wav,0,True,1320,54,féminin,3,0.213129,105.678511
03051969,4,0,2024-02-27T21:09:38.271Z,male_vraiment_flat_80.wav,0,True,1320,54,féminin,4,0.284172,54.429698
03051969,4,0,2024-02-27T21:09:38.271Z,male_vraiment_flat_80.wav,0,True,1320,54,féminin,5,0.355215,38.972413
03051969,4,0,2024-02-27T21:09:38.271Z,male_vraiment_flat_80.wav,0,True,1320,54,féminin,6,0.426259,36.313071
03051969,4,0,2024-02-27T21:09:38.271Z,male_vraiment_flat_49.wav,1,False,1320,54,féminin,0,0.000000,-83.600042
03051969,4,0,2024-02-27T21:09:38.271Z,male_vraiment_flat_49.wav,1,False,1320,54,féminin,1,0.071043,-14.728623
03051969,4,0,2024-02-27T21:09:38.271Z,male_vraiment_flat_49.wav,1,False,1320,54,féminin,2,0.142086,25.142138
03051969,4,0,2024-02-27T21:09:38.271Z,male_vraiment_flat_49.wav,1,False,1320,54,féminin,3,0.213129,135.875151
03051969,4,0,2024-02-27T21:09:38.271Z,male_vraiment_flat_49.wav,1,False,1320,54,féminin,4,0.284172,60.117986
03051969,4,0,2024-02-27T21:09:38.271Z,male_vraiment_flat_49.wav,1,False,1320,54,féminin,5,0.355215,-135.086661
03051969,4,0,2024-02-27T21:09:38.271Z,male_vraiment_flat_49.wav,1,False,1320,54,féminin,6,0.426259,-32.809615
03051969,5,0,2024-02-27T21:09:38.271Z,male_vraiment_flat_42.wav,0,True,1220,54,féminin,0,0.000000,-6.709342
03051969,5,0,2024-02-27T21:09:38.271Z,male_vraiment_flat_42.wav,0,True,1220,54,féminin,1,0.071043,35.704202
03051969,5,0,2024-02-27T21:09:38.271Z,male_vraiment_flat_42.wav,0,True,1220,54,féminin,2,0.142086,-71.421689
03051969,5,0,2024-02-27T21:09:38.271Z,male_vraiment_flat_42.wav,0,True,1220,54,féminin,3,0.213129,-126.906461
03051969,5,0,2024-02-27T21:09:38.271Z,male_vraiment_flat_42.wav,0,True,1220,54,féminin,4,0.284172,10.231121
03051969,5,0,2024-02-27T21:09:38.271Z,male_vraiment_flat_42.wav,0,True,1220,54,féminin,5,0.355215,128.933526
03051969,5,0,2024-02-27T21:09:38.271Z,male_vraiment_flat_42.wav,0,True,1220,54,féminin,6,0.426259,-76.727395
03051969,5,0,2024-02-27T21:09:38.271Z,male_vraiment_flat_94.wav,1,False,1220,54,féminin,0,0.000000,-0.652128
03051969,5,0,2024-02-27T21:09:38.271Z,male_vraiment_flat_94.wav,1,False,1220,54,féminin,1,0.071043,97.860897
03051969,5,0,2024-02-27T21:09:38.271Z,male_vraiment_flat_94.wav,1,False,1220,54,féminin,2,0.142086,48.932214
03051969,5,0,2024-02-27T21:09:38.271Z,male_vraiment_flat_94.wav,1,False,1220,54,féminin,3,0.213129,-23.097711
03051969,5,0,2024-02-27T21:09:38.271Z,male_vraiment_flat_94.wav,1,False,1220,54,féminin,4,0.284172,-47.481676
03051969,5,0,2024-02-27T21:09:38.271Z,male_vraiment_flat_94.wav,1,False,1220,54,féminin,5,0.355215,-120.450621
03051969,5,0,2024-02-27T21:09:38.271Z,male_vraiment_flat_94.wav,1,False,1220,54,féminin,6,0.426259,-116.887604
03051969,6,0,2024-02-27T21:09:38.271Z,male_vraiment_flat_34.wav,0,False,1713,54,féminin,0,0.000000,55.759121
03051969,6,0,2024-02-27T21:09:38.271Z,male_vraiment_flat_34.wav,0,False,1713,54,féminin,1,0.071043,56.428420
03051969,6,0,2024-02-27T21:09:38.271Z,male_vraiment_flat_34.wav,0,False,1713,54,féminin,2,0.142086,-58.759553
03051969,6,0,2024-02-27T21:09:38.271Z,male_vraiment_flat_34.wav,0,False,1713,54,féminin,3,0.213129,-145.130290
03051969,6,0,2024-02-27T21:09:38.271Z,male_vraiment_flat_34.wav,0,False,1713,54,féminin,4,0.284172,109.056087
03051969,6,0,2024-02-27T21:09:38.271Z,male_vraiment_flat_34.wav,0,False,1713,54,féminin,5,0.355215,-133.281135
03051969,6,0,2024-02-27T21:09:38.271Z,male_vraiment_flat_34.wav,0,False,1713,54,féminin,6,0.426259,-126.261912
03051969,6,0,2024-02-27T21:09:38.271Z,male_vraiment_flat_76.wav,1,True,1713,54,féminin,0,0.000000,-119.681125
03051969,6,0,2024-02-27T21:09:38.271Z,male_vraiment_flat_76.wav,1,True,1713,54,féminin,1,0.071043,66.441865
03051969,6,0,2024-02-27T21:09:38.271Z,male_vraiment_flat_76.wav,1,True,1713,54,féminin,2,0.142086,-95.265303
03051969,6,0,2024-02-27T21:09:38.271Z,male_vraiment_flat_76.wav,1,True,1713,54,féminin,3,0.213129,7.780656
03051969,6,0,2024-02-27T21:09:38.271Z,male_vraiment_flat_76.wav,1,True,1713,54,féminin,4,0.284172,-90.368576
03051969,6,0,2024-02-27T21:09:38.271Z,male_vraiment_flat_76.wav,1,True,1713,54,féminin,5,0.355215,-64.528472
03051969,6,0,2024-02-27T21:09:38.271Z,male_vraiment_flat_76.wav,1,True,1713,54,féminin,6,0.426259,-137.293439
03051969,7,0,2024-02-27T21:09:38.271Z,male_vraiment_flat_78.wav,0,False,2345,54,féminin,0,0.000000,80.055785
03051969,7,0,2024-02-27T21:09:38.271Z,male_vraiment_flat_78.wav,0,False,2345,54,féminin,1,0.071043,117.831593
03051969,7,0,2024-02-27T21:09:38.271Z,male_vraiment_flat_78.wav,0,False,2345,54,féminin,2,0.142086,-32.666549
03051969,7,0,2024-02-27T21:09:38.271Z,male_vraiment_flat_78.wav,0,False,2345,54,féminin,3,0.213129,67.905321
03051969,7,0,2024-02-27T21:09:38.271Z,male_vraiment_flat_78.wav,0,False,2345,54,féminin,4,0.284172,84.716683
03051969,7,0,2024-02-27T21:09:38.271Z,male_vraiment_flat_78.wav,0,False,2345,54,féminin,5,0.355215,30.832945
03051969,7,0,2024-02-27T21:09:38.271Z,male_vraiment_flat_78.wav,0,False,2345,54,féminin,6,0.426259,87.837740
03051969,7,0,2024-02-27T21:09:38.271Z,male_vraiment_flat_118.wav,1,True,2345,54,féminin,0,0.000000,126.187147
03051969,7,0,2024-02-27T21:09:38.271Z,male_vraiment_flat_118.wav,1,True,2345,54,féminin,1,0.071043,44.969184
03051969,7,0,2024-02-27T21:09:38.271Z,male_vraiment_flat_118.wav,1,True,2345,54,féminin,2,0.142086,-108.017243
03051969,7,0,2024-02-27T21:09:38.271Z,male_vraiment_flat_118.wav,1,True,2345,54,féminin,3,0.213129,6.480803
03051969,7,0,2024-02-27T21:09:38.271Z,male_vraiment_flat_118.wav,1,True,2345,54,féminin,4,0.284172,89.811831
03051969,7,0,2024-02-27T21:09:38.271Z,male_vraiment_flat_118.wav,1,True,2345,54,féminin,5,0.355215,60.034007
03051969,7,0,2024-02-27T21:09:38.271Z,male_vraiment_flat_118.wav,1,True,2345,54,féminin,6,0.426259,63.317816
03051969,8,0,2024-02-27T21:09:38.271Z,male_vraiment_flat_171.wav,0,True,2160,54,féminin,0,0.000000,-132.910898
03051969,8,0,2024-02-27T21:09:38.271Z,male_vraiment_flat_171.wav,0,True,2160,54,féminin,1,0.071043,-40.348113
03051969,8,0,2024-02-27T21:09:38.271Z,male_vraiment_flat_171.wav,0,True,2160,54,féminin,2,0.142086,-144.469254
03051969,8,0,2024-02-27T21:09:38.271Z,male_vraiment_flat_171.wav,0,True,2160,54,féminin,3,0.213129,-148.365603
03051969,8,0,2024-02-27T21:09:38.271Z,male_vraiment_flat_171.wav,0,True,2160,54,féminin,4,0.284172,29.209812
03051969,8,0,2024-02-27T21:09:38.271Z,male_vraiment_flat_171.wav,0,True,2160,54,féminin,5,0.355215,-68.789467
03051969,8,0,2024-02-27T21:09:38.271Z,male_vraiment_flat_171.wav,0,True,2160,54,féminin,6,0.426259,116.539457
03051969,8,0,2024-02-27T21:09:38.271Z,male_vraiment_flat_167.wav,1,False,2160,54,féminin,0,0.000000,-97.244470
03051969,8,0,2024-02-27T21:09:38.271Z,male_vraiment_flat_167.wav,1,False,2160,54,féminin,1,0.071043,55.519403
03051969,8,0,2024-02-27T21:09:38.271Z,male_vraiment_flat_167.wav,1,False,2160,54,féminin,2,0.142086,-125.285214
03051969,8,0,2024-02-27T21:09:38.271Z,male_vraiment_flat_167.wav,1,False,2160,54,féminin,3,0.213129,-87.843825
03051969,8,0,2024-02-27T21:09:38.271Z,male_vraiment_flat_167.wav,1,False,2160,54,féminin,4,0.284172,-127.750284
03051969,8,0,2024-02-27T21:09:38.271Z,male_vraiment_flat_167.wav,1,False,2160,54,féminin,5,0.355215,-93.631866
03051969,8,0,2024-02-27T21:09:38.271Z,male_vraiment_flat_167.wav,1,False,2160,54,féminin,6,0.426259,6.691804
03051969,9,0,2024-02-27T21:09:38.271Z,male_vraiment_flat_7.wav,0,True,1762,54,féminin,0,0.000000,43.823319
03051969,9,0,2024-02-27T21:09:38.271Z,male_vraiment_flat_7.wav,0,True,1762,54,féminin,1,0.071043,72.049148
03051969,9,0,2024-02-27T21:09:38.271Z,male_vraiment_flat_7.wav,0,True,1762,54,féminin,2,0.142086,-136.415247
03051969,9,0,2024-02-27T21:09:38.271Z,male_vraiment_flat_7.wav,0,True,1762,54,féminin,3,0.213129,44.015310
03051969,9,0,2024-02-27T21:09:38.271Z,male_vraiment_flat_7.wav,0,True,1762,54,féminin,4,0.284172,7.208530
03051969,9,0,2024-02-27T21:09:38.271Z,male_vraiment_flat_7.wav,0,True,1762,54,féminin,5,0.355215,18.587432
03051969,9,0,2024-02-27T21:09:38.271Z,male_vraiment_flat_7.wav,0,True,1762,54,féminin,6,0.426259,60.126473
03051969,9,0,2024-02-27T21:09:38.271Z,male_vraiment_flat_129.wav,1,False,1762,54,féminin,0,0.000000,121.236122
03051969,9,0,2024-02-27T21:09:38.271Z,male_vraiment_flat_129.wav,1,False,1762,54,féminin,1,0.071043,8.396736
03051969,9,0,2024-02-27T21:09:38.271Z,male_vraiment_flat_129.wav,1,False,1762,54,féminin,2,0.142086,-17.691364
03051969,9,0,2024-02-27T21:09:38.271Z,male_vraiment_flat_129.wav,1,False,1762,54,féminin,3,0.213129,73.711335
03051969,9,0,2024-02-27T21:09:38.271Z,male_vraiment_flat_129.wav,1,False,1762,54,féminin,4,0.284172,-117.430618
03051969,9,0,2024-02-27T21:09:38.271Z,male_vraiment_flat_129.wav,1,False,1762,54,féminin,5,0.355215,-12.936057
03051969,9,0,2024-02-27T21:09:38.271Z,male_vraiment_flat_129.wav,1,False,1762,54,féminin,6,0.426259,-63.494285
03051969,10,0,2024-02-27T21:09:38.271Z,male_vraiment_flat_64.wav,0,False,2161,54,féminin,0,0.000000,113.461811
03051969,10,0,2024-02-27T21:09:38.271Z,male_vraiment_flat_64.wav,0,False,2161,54,féminin,1,0.071043,60.375974
03051969,10,0,2024-02-27T21:09:38.271Z,male_vraiment_flat_64.wav,0,False,2161,54,féminin,2,0.142086,-103.339599
03051969,10,0,2024-02-27T21:09:38.271Z,male_vraiment_flat_64.wav,0,False,2161,54,féminin,3,0.213129,103.179307
03051969,10,0,2024-02-27T21:09:38.271Z,male_vraiment_flat_64.wav,0,False,2161,54,féminin,4,0.284172,81.101135
03051969,10,0,2024-02-27T21:09:38.271Z,male_vraiment_flat_64.wav,0,False,2161,54,féminin,5,0.355215,-3.861127
03051969,10,0,2024-02-27T21:09:38.271Z,male_vraiment_flat_64.wav,0,False,2161,54,féminin,6,0.426259,-77.158959
03051969,10,0,2024-02-27T21:09:38.271Z,male_vraiment_flat_142.wav,1,True,2161,54,féminin,0,0.000000,129.881009
03051969,10,0,2024-02-27T21:09:38.271Z,male_vraiment_flat_142.wav,1,True,2161,54,féminin,1,0.071043,116.596688
03051969,10,0,2024-02-27T21:09:38.271Z,male_vraiment_flat_142.wav,1,True,2161,54,féminin,2,0.142086,48.203333
03051969,10,0,2024-02-27T21:09:38.271Z,male_vraiment_flat_142.wav,1,True,2161,54,féminin,3,0.213129,100.883154
03051969,10,0,2024-02-27T21:09:38.271Z,male_vraiment_flat_142.wav,1,True,2161,54,féminin,4,0.284172,-39.625904
03051969,10,0,2024-02-27T21:09:38.271Z,male_vraiment_flat_142.wav,1,True,2161,54,féminin,5,0.355215,-141.802649
03051969,10,0,2024-02-27T21:09:38.271Z,male_vraiment_flat_142.wav,1,True,2161,54,féminin,6,0.426259,58.691582
03051969,11,0,2024-02-27T21:09:38.271Z,male_vraiment_flat_11.wav,0,False,966,54,féminin,0,0.000000,106.632802
03051969,11,0,2024-02-27T21:09:38.271Z,male_vraiment_flat_11.wav,0,False,966,54,féminin,1,0.071043,30.235531
03051969,11,0,2024-02-27T21:09:38.271Z,male_vraiment_flat_11.wav,0,False,966,54,féminin,2,0.142086,-31.934811
03051969,11,0,2024-02-27T21:09:38.271Z,male_vraiment_flat_11.wav,0,False,966,54,féminin,3,0.213129,-70.817469
03051969,11,0,2024-02-27T21:09:38.271Z,male_vraiment_flat_11.wav,0,False,966,54,féminin,4,0.284172,-134.947845
03051969,11,0,2024-02-27T21:09:38.271Z,male_vraiment_flat_11.wav,0,False,966,54,féminin,5,0.355215,-61.866249
03051969,11,0,2024-02-27T21:09:38.271Z,male_vraiment_flat_11.wav,0,False,966,54,féminin,6,0.426259,61.370028
03051969,11,0,2024-02-27T21:09:38.271Z,male_vraiment_flat_70.wav,1,True,966,54,féminin,0,0.000000,-95.640606
03051969,11,0,2024-02-27T21:09:38.271Z,male_vraiment_flat_70.wav,1,True,966,54,féminin,1,0.071043,17.584667
03051969,11,0,2024-02-27T21:09:38.271Z,male_vraiment_flat_70.wav,1,True,966,54,féminin,2,0.142086,9.439432
03051969,11,0,2024-02-27T21:09:38.271Z,male_vraiment_flat_70.wav,1,True,966,54,féminin,3,0.213129,26.204853
03051969,11,0,2024-02-27T21:09:38.271Z,male_vraiment_flat_70.wav,1,True,966,54,féminin,4,0.284172,19.735476
03051969,11,0,2024-02-27T21:09:38.271Z,male_vraiment_flat_70.wav,1,True,966,54,féminin,5,0.355215,-45.465161
03051969,11,0,2024-02-27T21:09:38.271Z,male_vraiment_flat_70.wav,1,True,966,54,féminin,6,0.426259,24.901866
03051969,12,0,2024-02-27T21:09:38.271Z,male_vraiment_flat_55.wav,0,False,1285,54,féminin,0,0.000000,41.960803
03051969,12,0,2024-02-27T21:09:38.271Z,male_vraiment_flat_55.wav,0,False,1285,54,féminin,1,0.071043,-15.216637
03051969,12,0,2024-02-27T21:09:38.271Z,male_vraiment_flat_55.wav,0,False,1285,54,féminin,2,0.142086,-141.495937
03051969,12,0,2024-02-27T21:09:38.271Z,male_vraiment_flat_55.wav,0,False,1285,54,féminin,3,0.213129,-73.120481
03051969,12,0,2024-02-27T21:09:38.271Z,male_vraiment_flat_55.wav,0,False,1285,54,féminin,4,0.284172,-46.277227
03051969,12,0,2024-02-27T21:09:38.271Z,male_vraiment_flat_55.wav,0,False,1285,54,féminin,5,0.355215,60.235867
03051969,12,0,2024-02-27T21:09:38.271Z,male_vraiment_flat_55.wav,0,False,1285,54,féminin,6,0.426259,0.915299
03051969,12,0,2024-02-27T21:09:38.271Z,male_vraiment_flat_107.wav,1,True,1285,54,féminin,0,0.000000,147.824484
03051969,12,0,2024-02-27T21:09:38.271Z,male_vraiment_flat_107.wav,1,True,1285,54,féminin,1,0.071043,-35.753560
03051969,12,0,2024-02-27T21:09:38.271Z,male_vraiment_flat_107.wav,1,True,1285,54,féminin,2,0.142086,-17.671801
03051969,12,0,2024-02-27T21:09:38.271Z,male_vraiment_flat_107.wav,1,True,1285,54,féminin,3,0.213129,145.037411
03051969,12,0,2024-02-27T21:09:38.271Z,male_vraiment_flat_107.wav,1,True,1285,54,féminin,4,0.284172,17.430899
03051969,12,0,2024-02-27T21:09:38.271Z,male_vraiment_flat_107.wav,1,True,1285,54,féminin,5,0.355215,-34.827913
03051969,12,0,2024-02-27T21:09:38.271Z,male_vraiment_flat_107.wav,1,True,1285,54,féminin,6,0.426259,-148.430397
03051969,13,0,2024-02-27T21:09:38.271Z,male_vraiment_flat_33.wav,0,True,1164,54,féminin,0,0.000000,77.429006
03051969,13,0,2024-02-27T21:09:38.271Z,male_vraiment_flat_33.wav,0,True,1164,54,féminin,1,0.071043,25.170622
03051969,13,0,2024-02-27T21:09:38.271Z,male_vraiment_flat_33.wav,0,True,1164,54,féminin,2,0.142086,-65.854422
03051969,13,0,2024-02-27T21:09:38.271Z,male_vraiment_flat_33.wav,0,True,1164,54,féminin,3,0.213129,106.380035
03051969,13,0,2024-02-27T21:09:38.271Z,male_vraiment_flat_33.wav,0,True,1164,54,féminin,4,0.284172,126.948212
03051969,13,0,2024-02-27T21:09:38.271Z,male_vraiment_flat_33.wav,0,True,1164,54,féminin,5,0.355215,88.675782
03051969,13,0,2024-02-27T21:09:38.271Z,male_vraiment_flat_33.wav,0,True,1164,54,féminin,6,0.426259,-129.822255
03051969,13,0,2024-02-27T21:09:38.271Z,male_vraiment_flat_5.wav,1,False,1164,54,féminin,0,0.000000,88.556797
03051969,13,0,2024-02-27T21:09:38.271Z,male_vraiment_flat_5.wav,1,False,1164,54,féminin,1,0.071043,120.959384
03051969,13,0,2024-02-27T21:09:38.271Z,male_vraiment_flat_5.wav,1,False,1164,54,féminin,2,0.142086,-116.065822
03051969,13,0,2024-02-27T21:09:38.271Z,male_vraiment_flat_5.wav,1,False,1164,54,féminin,3,0.213129,130.464712
03051969,13,0,2024-02-27T21:09:38.271Z,male_vraiment_flat_5.wav,1,False,1164,54,féminin,4,0.284172,88.167919
03051969,13,0,2024-02-27T21:09:38.271Z,male_vraiment_flat_5.wav,1,False,1164,54,féminin,5,0.355215,75.417329
03051969,13,0,2024-02-27T21:09:38.271Z,male_vraiment_flat_5.wav,1,False,1164,54,féminin,6,0.426259,65.499211
03051969,14,0,2024-02-27T21:09:38.271Z,male_vraiment_flat_90.wav,0,False,3446,54,féminin,0,0.000000,39.615876
03051969,14,0,2024-02-27T21:09:38.271Z,male_vraiment_flat_90.wav,0,False,3446,54,féminin,1,0.071043,-130.464689
03051969,14,0,2024-02-27T21:09:38.271Z,male_vraiment_flat_90.wav,0,False,3446,54,féminin,2,0.142086,46.838016
03051969,14,0,2024-02-27T21:09:38.271Z,male_vraiment_flat_90.wav,0,False,3446,54,féminin,3,0.213129,104.861302
03051969,14,0,2024-02-27T21:09:38.271Z,male_vraiment_flat_90.wav,0,False,3446,54,féminin,4,0.284172,-102.459680
03051969,14,0,2024-02-27T21:09:38.271Z,male_vraiment_flat_90.wav,0,False,3446,54,féminin,5,0.355215,-91.275011
03051969,14,0,2024-02-27T21:09:38.271Z,male_vraiment_flat_90.wav,0,False,3446,54,féminin,6,0.426259,45.823426
03051969,14,0,2024-02-27T21:09:38.271Z,male_vraiment_flat_170.wav,1,True,3446,54,féminin,0,0.000000,88.489327
03051969,14,0,2024-02-27T21:09:38.271Z,male_vraiment_flat_170.wav,1,True,3446,54,féminin,1,0.071043,-76.759591
03051969,14,0,2024-02-27T21:09:38.271Z,male_vraiment_flat_170.wav,1,True,3446,54,féminin,2,0.142086,131.535458
03051969,14,0,2024-02-27T21:09:38.271Z,male_vraiment_flat_170.wav,1,True,3446,54,féminin,3,0.213129,-66.304272
03051969,14,0,2024-02-27T21:09:38.271Z,male_vraiment_flat_170.wav,1,True,3446,54,féminin,4,0.284172,82.842237
03051969,14,0,2024-02-27T21:09:38.271Z,male_vraiment_flat_170.wav,1,True,3446,54,féminin,5,0.355215,39.682087
03051969,14,0,2024-02-27T21:09:38.271Z,male_vraiment_flat_170.wav,1,True,3446,54,féminin,6,0.426259,-39.313076
03051969,15,0,2024-02-27T21:09:38.271Z,male_vraiment_flat_137.wav,0,False,1676,54,féminin,0,0.000000,80.130674
03051969,15,0,2024-02-27T21:09:38.271Z,male_vraiment_flat_137.wav,0,False,1676,54,féminin,1,0.071043,138.574149
03051969,15,0,2024-02-27T21:09:38.271Z,male_vraiment_flat_137.wav,0,False,1676,54,féminin,2,0.142086,75.493630
03051969,15,0,2024-02-27T21:09:38.271Z,male_vraiment_flat_137.wav,0,False,1676,54,féminin,3,0.213129,-91.745449
03051969,15,0,2024-02-27T21:09:38.271Z,male_vraiment_flat_137.wav,0,False,1676,54,féminin,4,0.284172,67.674634
03051969,15,0,2024-02-27T21:09:38.271Z,male_vraiment_flat_137.wav,0,False,1676,54,féminin,5,0.355215,136.412365
03051969,15,0,2024-02-27T21:09:38.271Z,male_vraiment_flat_137.wav,0,False,1676,54,féminin,6,0.426259,13.296001
03051969,15,0,2024-02-27T21:09:38.271Z,male_vraiment_flat_72.wav,1,True,1676,54,féminin,0,0.000000,-108.464526
03051969,15,0,2024-02-27T21:09:38.271Z,male_vraiment_flat_72.wav,1,True,1676,54,féminin,1,0.071043,78.835335
03051969,15,0,2024-02-27T21:09:38.271Z,male_vraiment_flat_72.wav,1,True,1676,54,féminin,2,0.142086,134.553834
03051969,15,0,2024-02-27T21:09:38.271Z,male_vraiment_flat_72.wav,1,True,1676,54,féminin,3,0.213129,5.396534
03051969,15,0,2024-02-27T21:09:38.271Z,male_vraiment_flat_72.wav,1,True,1676,54,féminin,4,0.284172,7.798595
03051969,15,0,2024-02-27T21:09:38.271Z,male_vraiment_flat_72.wav,1,True,1676,54,féminin,5,0.355215,65.510626
03051969,15,0,2024-02-27T21:09:38.271Z,male_vraiment_flat_72.wav,1,True,1676,54,féminin,6,0.426259,-103.798030
03051969,16,0,2024-02-27T21:09:38.271Z,male_vraiment_flat_146.wav,0,False,1138,54,féminin,0,0.000000,92.610651
03051969,16,0,2024-02-27T21:09:38.271Z,male_vraiment_flat_146.wav,0,False,1138,54,féminin,1,0.071043,40.250954
03051969,16,0,2024-02-27T21:09:38.271Z,male_vraiment_flat_146.wav,0,False,1138,54,féminin,2,0.142086,99.988333
03051969,16,0,2024-02-27T21:09:38.271Z,male_vraiment_flat_146.wav,0,False,1138,54,féminin,3,0.213129,115.543405
03051969,16,0,2024-02-27T21:09:38.271Z,male_vraiment_flat_146.wav,0,False,1138,54,féminin,4,0.284172,-3.607960
03051969,16,0,2024-02-27T21:09:38.271Z,male_vraiment_flat_146.wav,0,False,1138,54,féminin,5,0.355215,-91.494225
03051969,16,0,2024-02-27T21:09:38.271Z,male_vraiment_flat_146.wav,0,False,1138,54,féminin,6,0.426259,-109.708123
03051969,16,0,2024-02-27T21:09:38.271Z,male_vraiment_flat_84.wav,1,True,1138,54,féminin,0,0.000000,79.222174
03051969,16,0,2024-02-27T21:09:38.271Z,male_vraiment_flat_84.wav,1,True,1138,54,féminin,1,0.071043,61.816109
03051969,16,0,2024-02-27T21:09:38.271Z,male_vraiment_flat_84.wav,1,True,1138,54,féminin,2,0.142086,-111.712238
03051969,16,0,2024-02-27T21:09:38.271Z,male_vraiment_flat_84.wav,1,True,1138,54,féminin,3,0.213129,96.584947
03051969,16,0,2024-02-27T21:09:38.271Z,male_vraiment_flat_84.wav,1,True,1138,54,féminin,4,0.284172,-11.292098
03051969,16,0,2024-02-27T21:09:38.271Z,male_vraiment_flat_84.wav,1,True,1138,54,féminin,5,0.355215,57.720124
03051969,16,0,2024-02-27T21:09:38.271Z,male_vraiment_flat_84.wav,1,True,1138,54,féminin,6,0.426259,-122.021307
03051969,17,0,2024-02-27T21:09:38.271Z,male_vraiment_flat_150.wav,0,False,1317,54,féminin,0,0.000000,-0.845919
03051969,17,0,2024-02-27T21:09:38.271Z,male_vraiment_flat_150.wav,0,False,1317,54,féminin,1,0.071043,-101.665398
03051969,17,0,2024-02-27T21:09:38.271Z,male_vraiment_flat_150.wav,0,False,1317,54,féminin,2,0.142086,-128.909269
03051969,17,0,2024-02-27T21:09:38.271Z,male_vraiment_flat_150.wav,0,False,1317,54,féminin,3,0.213129,-98.956601
03051969,17,0,2024-02-27T21:09:38.271Z,male_vraiment_flat_150.wav,0,False,1317,54,féminin,4,0.284172,-120.693020
03051969,17,0,2024-02-27T21:09:38.271Z,male_vraiment_flat_150.wav,0,False,1317,54,féminin,5,0.355215,-126.286795
03051969,17,0,2024-02-27T21:09:38.271Z,male_vraiment_flat_150.wav,0,False,1317,54,féminin,6,0.426259,121.368949
03051969,17,0,2024-02-27T21:09:38.271Z,male_vraiment_flat_103.wav,1,True,1317,54,féminin,0,0.000000,107.674069
03051969,17,0,2024-02-27T21:09:38.271Z,male_vraiment_flat_103.wav,1,True,1317,54,féminin,1,0.071043,149.413476
03051969,17,0,2024-02-27T21:09:38.271Z,male_vraiment_flat_103.wav,1,True,1317,54,féminin,2,0.142086,-1.049319
03051969,17,0,2024-02-27T21:09:38.271Z,male_vraiment_flat_103.wav,1,True,1317,54,féminin,3,0.213129,-7.353867
03051969,17,0,2024-02-27T21:09:38.271Z,male_vraiment_flat_103.wav,1,True,1317,54,féminin,4,0.284172,-2.169492
03051969,17,0,2024-02-27T21:09:38.271Z,male_vraiment_flat_103.wav,1,True,1317,54,féminin,5,0.355215,-94.854916
03051969,17,0,2024-02-27T21:09:38.271Z,male_vraiment_flat_103.wav,1,True,1317,54,féminin,6,0.426259,119.487430
03051969,18,0,2024-02-27T21:09:38.271Z,male_vraiment_flat_67.wav,0,True,1981,54,féminin,0,0.000000,3.293259
03051969,18,0,2024-02-27T21:09:38.271Z,male_vraiment_flat_67.wav,0,True,1981,54,féminin,1,0.071043,-46.547477
03051969,18,0,2024-02-27T21:09:38.271Z,male_vraiment_flat_67.wav,0,True,1981,54,féminin,2,0.142086,54.624069
03051969,18,0,2024-02-27T21:09:38.271Z,male_vraiment_flat_67.wav,0,True,1981,54,féminin,3,0.213129,-46.025939
03051969,18,0,2024-02-27T21:09:38.271Z,male_vraiment_flat_67.wav,0,True,1981,54,féminin,4,0.284172,70.704507
03051969,18,0,2024-02-27T21:09:38.271Z,male_vraiment_flat_67.wav,0,True,1981,54,féminin,5,0.355215,-47.199237
03051969,18,0,2024-02-27T21:09:38.271Z,male_vraiment_flat_67.wav,0,True,1981,54,féminin,6,0.426259,147.575842
03051969,18,0,2024-02-27T21:09:38.271Z,male_vraiment_flat_173.wav,1,False,1981,54,féminin,0,0.000000,-99.731768
03051969,18,0,2024-02-27T21:09:38.271Z,male_vraiment_flat_173.wav,1,False,1981,54,féminin,1,0.071043,-42.486722
03051969,18,0,2024-02-27T21:09:38.271Z,male_vraiment_flat_173.wav,1,False,1981,54,féminin,2,0.142086,49.610636
03051969,18,0,2024-02-27T21:09:38.271Z,male_vraiment_flat_173.wav,1,False,1981,54,féminin,3,0.213129,-115.961177
03051969,18,0,2024-02-27T21:09:38.271Z,male_vraiment_flat_173.wav,1,False,1981,54,féminin,4,0.284172,-68.693255
03051969,18,0,2024-02-27T21:09:38.271Z,male_vraiment_flat_173.wav,1,False,1981,54,féminin,5,0.355215,105.434903
03051969,18,0,2024-02-27T21:09:38.271Z,male_vraiment_flat_173.wav,1,False,1981,54,féminin,6,0.426259,5.248120
03051969,19,0,2024-02-27T21:09:38.271Z,male_vraiment_flat_69.wav,0,True,2031,54,féminin,0,0.000000,-3.170538
03051969,19,0,2024-02-27T21:09:38.271Z,male_vraiment_flat_69.wav,0,True,2031,54,féminin,1,0.071043,35.318973
03051969,19,0,2024-02-27T21:09:38.271Z,male_vraiment_flat_69.wav,0,True,2031,54,féminin,2,0.142086,9.650212
03051969,19,0,2024-02-27T21:09:38.271Z,male_vraiment_flat_69.wav,0,True,2031,54,féminin,3,0.213129,140.461686
03051969,19,0,2024-02-27T21:09:38.271Z,male_vraiment_flat_69.wav,0,True,2031,54,féminin,4,0.284172,-72.489288
03051969,19,0,2024-02-27T21:09:38.271Z,male_vraiment_flat_69.wav,0,True,2031,54,féminin,5,0.355215,-111.567531
03051969,19,0,2024-02-27T21:09:38.271Z,male_vraiment_flat_69.wav,0,True,2031,54,féminin,6,0.426259,62.840145
03051969,19,0,2024-02-27T21:09:38.271Z,male_vraiment_flat_181.wav,1,False,2031,54,féminin,0,0.000000,87.984579
03051969,19,0,2024-02-27T21:09:38.271Z,male_vraiment_flat_181.wav,1,False,2031,54,féminin,1,0.071043,-52.749156
03051969,19,0,2024-02-27T21:09:38.271Z,male_vraiment_flat_181.wav,1,False,2031,54,féminin,2,0.142086,-81.744540
03051969,19,0,2024-02-27T21:09:38.271Z,male_vraiment_flat_181.wav,1,False,2031,54,féminin,3,0.213129,-103.539742
03051969,19,0,2024-02-27T21:09:38.271Z,male_vraiment_flat_181.wav,1,False,2031,54,féminin,4,0.284172,51.143910
03051969,19,0,2024-02-27T21:09:38.271Z,male_vraiment_flat_181.wav,1,False,2031,54,féminin,5,0.355215,89.293467
03051969,19,0,2024-02-27T21:09:38.271Z,male_vraiment_flat_181.wav,1,False,2031,54,féminin,6,0.426259,-33.289981
03051969,20,0,2024-02-27T21:09:38.271Z,male_vraiment_flat_123.wav,0,True,1020,54,féminin,0,0.000000,24.338681
03051969,20,0,2024-02-27T21:09:38.271Z,male_vraiment_flat_123.wav,0,True,1020,54,féminin,1,0.071043,-76.255610
03051969,20,0,2024-02-27T21:09:38.271Z,male_vraiment_flat_123.wav,0,True,1020,54,féminin,2,0.142086,16.829571
03051969,20,0,2024-02-27T21:09:38.271Z,male_vraiment_flat_123.wav,0,True,1020,54,féminin,3,0.213129,3.085792
03051969,20,0,2024-02-27T21:09:38.271Z,male_vraiment_flat_123.wav,0,True,1020,54,féminin,4,0.284172,81.658793
03051969,20,0,2024-02-27T21:09:38.271Z,male_vraiment_flat_123.wav,0,True,1020,54,féminin,5,0.355215,73.758354
03051969,20,0,2024-02-27T21:09:38.271Z,male_vraiment_flat_123.wav,0,True,1020,54,féminin,6,0.426259,103.644220
03051969,20,0,2024-02-27T21:09:38.271Z,male_vraiment_flat_153.wav,1,False,1020,54,féminin,0,0.000000,-62.105340
03051969,20,0,2024-02-27T21:09:38.271Z,male_vraiment_flat_153.wav,1,False,1020,54,féminin,1,0.071043,-52.997588
03051969,20,0,2024-02-27T21:09:38.271Z,male_vraiment_flat_153.wav,1,False,1020,54,féminin,2,0.142086,-76.077591
03051969,20,0,2024-02-27T21:09:38.271Z,male_vraiment_flat_153.wav,1,False,1020,54,féminin,3,0.213129,-18.807121
03051969,20,0,2024-02-27T21:09:38.271Z,male_vraiment_flat_153.wav,1,False,1020,54,féminin,4,0.284172,-115.396331
03051969,20,0,2024-02-27T21:09:38.271Z,male_vraiment_flat_153.wav,1,False,1020,54,féminin,5,0.355215,-128.292537
03051969,20,0,2024-02-27T21:09:38.271Z,male_vraiment_flat_153.wav,1,False,1020,54,féminin,6,0.426259,-78.650880
03051969,21,0,2024-02-27T21:09:38.271Z,male_vraiment_flat_115.wav,0,False,963,54,féminin,0,0.000000,-100.568741
03051969,21,0,2024-02-27T21:09:38.271Z,male_vraiment_flat_115.wav,0,False,963,54,féminin,1,0.071043,57.843647
03051969,21,0,2024-02-27T21:09:38.271Z,male_vraiment_flat_115.wav,0,False,963,54,féminin,2,0.142086,-30.946862
03051969,21,0,2024-02-27T21:09:38.271Z,male_vraiment_flat_115.wav,0,False,963,54,féminin,3,0.213129,-117.622484
03051969,21,0,2024-02-27T21:09:38.271Z,male_vraiment_flat_115.wav,0,False,963,54,féminin,4,0.284172,12.634833
03051969,21,0,2024-02-27T21:09:38.271Z,male_vraiment_flat_115.wav,0,False,963,54,féminin,5,0.355215,-81.533692
03051969,21,0,2024-02-27T21:09:38.271Z,male_vraiment_flat_115.wav,0,False,963,54,féminin,6,0.426259,-72.293995
03051969,21,0,2024-02-27T21:09:38.271Z,male_vraiment_flat_141.wav,1,True,963,54,féminin,0,0.000000,137.275446
03051969,21,0,2024-02-27T21:09:38.271Z,male_vraiment_flat_141.wav,1,True,963,54,féminin,1,0.071043,43.805847
03051969,21,0,2024-02-27T21:09:38.271Z,male_vraiment_flat_141.wav,1,True,963,54,féminin,2,0.142086,-129.344909
03051969,21,0,2024-02-27T21:09:38.271Z,male_vraiment_flat_141.wav,1,True,963,54,féminin,3,0.213129,-123.799171
03051969,21,0,2024-02-27T21:09:38.271Z,male_vraiment_flat_141.wav,1,True,963,54,féminin,4,0.284172,-103.584410
03051969,21,0,2024-02-27T21:09:38.271Z,male_vraiment_flat_141.wav,1,True,963,54,féminin,5,0.355215,8.047141
03051969,21,0,2024-02-27T21:09:38.271Z,male_vraiment_flat_141.wav,1,True,963,54,féminin,6,0.426259,-108.188423
03051969,22,0,2024-02-27T21:09:38.271Z,male_vraiment_flat_17.wav,0,False,976,54,féminin,0,0.000000,91.198655
03051969,22,0,2024-02-27T21:09:38.271Z,male_vraiment_flat_17.wav,0,False,976,54,féminin,1,0.071043,44.952547
03051969,22,0,2024-02-27T21:09:38.271Z,male_vraiment_flat_17.wav,0,False,976,54,féminin,2,0.142086,-82.852461
03051969,22,0,2024-02-27T21:09:38.271Z,male_vraiment_flat_17.wav,0,False,976,54,féminin,3,0.213129,-89.451177
03051969,22,0,2024-02-27T21:09:38.271Z,male_vraiment_flat_17.wav,0,False,976,54,féminin,4,0.284172,-149.534475
03051969,22,0,2024-02-27T21:09:38.271Z,male_vraiment_flat_17.wav,0,False,976,54,féminin,5,0.355215,-107.621144
03051969,22,0,2024-02-27T21:09:38.271Z,male_vraiment_flat_17.wav,0,False,976,54,féminin,6,0.426259,-93.535165
03051969,22,0,2024-02-27T21:09:38.271Z,male_vraiment_flat_16.wav,1,True,976,54,féminin,0,0.000000,141.243943
03051969,22,0,2024-02-27T21:09:38.271Z,male_vraiment_flat_16.wav,1,True,976,54,féminin,1,0.071043,-34.322435
03051969,22,0,2024-02-27T21:09:38.271Z,male_vraiment_flat_16.wav,1,True,976,54,féminin,2,0.142086,10.018864
03051969,22,0,2024-02-27T21:09:38.271Z,male_vraiment_flat_16.wav,1,True,976,54,féminin,3,0.213129,-24.066951
03051969,22,0,2024-02-27T21:09:38.271Z,male_vraiment_flat_16.wav,1,True,976,54,féminin,4,0.284172,45.502655
03051969,22,0,2024-02-27T21:09:38.271Z,male_vraiment_flat_16.wav,1,True,976,54,féminin,5,0.355215,107.276086
03051969,22,0,2024-02-27T21:09:38.271Z,male_vraiment_flat_16.wav,1,True,976,54,féminin,6,0.426259,58.110380
03051969,23,0,2024-02-27T21:09:38.271Z,male_vraiment_flat_162.wav,0,True,997,54,féminin,0,0.000000,-28.080103
03051969,23,0,2024-02-27T21:09:38.271Z,male_vraiment_flat_162.wav,0,True,997,54,féminin,1,0.071043,-58.839442
03051969,23,0,2024-02-27T21:09:38.271Z,male_vraiment_flat_162.wav,0,True,997,54,féminin,2,0.142086,8.883261
03051969,23,0,2024-02-27T21:09:38.271Z,male_vraiment_flat_162.wav,0,True,997,54,féminin,3,0.213129,109.746189
03051969,23,0,2024-02-27T21:09:38.271Z,male_vraiment_flat_162.wav,0,True,997,54,féminin,4,0.284172,134.765505
03051969,23,0,2024-02-27T21:09:38.271Z,male_vraiment_flat_162.wav,0,True,997,54,féminin,5,0.355215,-8.935646
03051969,23,0,2024-02-27T21:09:38.271Z,male_vraiment_flat_162.wav,0,True,997,54,féminin,6,0.426259,114.162759
03051969,23,0,2024-02-27T21:09:38.271Z,male_vraiment_flat_68.wav,1,False,997,54,féminin,0,0.000000,-95.161618
03051969,23,0,2024-02-27T21:09:38.271Z,male_vraiment_flat_68.wav,1,False,997,54,féminin,1,0.071043,-119.152564
03051969,23,0,2024-02-27T21:09:38.271Z,male_vraiment_flat_68.wav,1,False,997,54,féminin,2,0.142086,18.051976
03051969,23,0,2024-02-27T21:09:38.271Z,male_vraiment_flat_68.wav,1,False,997,54,féminin,3,0.213129,-26.870716
03051969,23,0,2024-02-27T21:09:38.271Z,male_vraiment_flat_68.wav,1,False,997,54,féminin,4,0.284172,87.472746
03051969,23,0,2024-02-27T21:09:38.271Z,male_vraiment_flat_68.wav,1,False,997,54,féminin,5,0.355215,-56.607347
03051969,23,0,2024-02-27T21:09:38.271Z,male_vraiment_flat_68.wav,1,False,997,54,féminin,6,0.426259,148.066508
03051969,24,0,2024-02-27T21:09:38.271Z,male_vraiment_flat_155.wav,0,False,877,54,féminin,0,0.000000,-140.284917
03051969,24,0,2024-02-27T21:09:38.271Z,male_vraiment_flat_155.wav,0,False,877,54,féminin,1,0.071043,56.043903
03051969,24,0,2024-02-27T21:09:38.271Z,male_vraiment_flat_155.wav,0,False,877,54,féminin,2,0.142086,-2.142699
03051969,24,0,2024-02-27T21:09:38.271Z,male_vraiment_flat_155.wav,0,False,877,54,féminin,3,0.213129,-41.999388
03051969,24,0,2024-02-27T21:09:38.271Z,male_vraiment_flat_155.wav,0,False,877,54,féminin,4,0.284172,-69.522618
03051969,24,0,2024-02-27T21:09:38.271Z,male_vraiment_flat_155.wav,0,False,877,54,féminin,5,0.355215,29.697532
03051969,24,0,2024-02-27T21:09:38.271Z,male_vraiment_flat_155.wav,0,False,877,54,féminin,6,0.426259,40.565741
03051969,24,0,2024-02-27T21:09:38.271Z,male_vraiment_flat_191.wav,1,True,877,54,féminin,0,0.000000,-3.321474
03051969,24,0,2024-02-27T21:09:38.271Z,male_vraiment_flat_191.wav,1,True,877,54,féminin,1,0.071043,110.638678
03051969,24,0,2024-02-27T21:09:38.271Z,male_vraiment_flat_191.wav,1,True,877,54,féminin,2,0.142086,142.170563
03051969,24,0,2024-02-27T21:09:38.271Z,male_vraiment_flat_191.wav,1,True,877,54,féminin,3,0.213129,-110.761685
03051969,24,0,2024-02-27T21:09:38.271Z,male_vraiment_flat_191.wav,1,True,877,54,féminin,4,0.284172,23.931067
03051969,24,0,2024-02-27T21:09:38.271Z,male_vraiment_flat_191.wav,1,True,877,54,féminin,5,0.355215,-28.623113
03051969,24,0,2024-02-27T21:09:38.271Z,male_vraiment_flat_191.wav,1,True,877,54,féminin,6,0.426259,68.073722
03051969,25,0,2024-02-27T21:09:38.271Z,male_vraiment_flat_128.wav,0,False,1459,54,féminin,0,0.000000,-144.911109
03051969,25,0,2024-02-27T21:09:38.271Z,male_vraiment_flat_128.wav,0,False,1459,54,féminin,1,0.071043,-110.844671
03051969,25,0,2024-02-27T21:09:38.271Z,male_vraiment_flat_128.wav,0,False,1459,54,féminin,2,0.142086,35.068695
03051969,25,0,2024-02-27T21:09:38.271Z,male_vraiment_flat_128.wav,0,False,1459,54,féminin,3,0.213129,-95.248162
03051969,25,0,2024-02-27T21:09:38.271Z,male_vraiment_flat_128.wav,0,False,1459,54,féminin,4,0.284172,-45.012706
03051969,25,0,2024-02-27T21:09:38.271Z,male_vraiment_flat_128.wav,0,False,1459,54,féminin,5,0.355215,79.801624
03051969,25,0,2024-02-27T21:09:38.271Z,male_vraiment_flat_128.wav,0,False,1459,54,féminin,6,0.426259,-47.761682
03051969,25,0,2024-02-27T21:09:38.271Z,male_vraiment_flat_113.wav,1,True,1459,54,féminin,0,0.000000,52.176539
03051969,25,0,2024-02-27T21:09:38.271Z,male_vraiment_flat_113.wav,1,True,1459,54,féminin,1,0.071043,52.904766
03051969,25,0,2024-02-27T21:09:38.271Z,male_vraiment_flat_113.wav,1,True,1459,54,féminin,2,0.142086,-138.473207
03051969,25,0,2024-02-27T21:09:38.271Z,male_vraiment_flat_113.wav,1,True,1459,54,féminin,3,0.213129,-65.217652
03051969,25,0,2024-02-27T21:09:38.271Z,male_vraiment_flat_113.wav,1,True,1459,54,féminin,4,0.284172,3.928053
03051969,25,0,2024-02-27T21:09:38.271Z,male_vraiment_flat_113.wav,1,True,1459,54,féminin,5,0.355215,69.229623
03051969,25,0,2024-02-27T21:09:38.271Z,male_vraiment_flat_113.wav,1,True,1459,54,féminin,6,0.426259,-85.157528
03051969,26,0,2024-02-27T21:09:38.271Z,male_vraiment_flat_45.wav,0,True,785,54,féminin,0,0.000000,-108.869549
03051969,26,0,2024-02-27T21:09:38.271Z,male_vraiment_flat_45.wav,0,True,785,54,féminin,1,0.071043,-22.660114
03051969,26,0,2024-02-27T21:09:38.271Z,male_vraiment_flat_45.wav,0,True,785,54,féminin,2,0.142086,-141.096375
03051969,26,0,2024-02-27T21:09:38.271Z,male_vraiment_flat_45.wav,0,True,785,54,féminin,3,0.213129,-24.815065
03051969,26,0,2024-02-27T21:09:38.271Z,male_vraiment_flat_45.wav,0,True,785,54,féminin,4,0.284172,102.804681
03051969,26,0,2024-02-27T21:09:38.271Z,male_vraiment_flat_45.wav,0,True,785,54,féminin,5,0.355215,112.365201
03051969,26,0,2024-02-27T21:09:38.271Z,male_vraiment_flat_45.wav,0,True,785,54,féminin,6,0.426259,95.196821
03051969,26,0,2024-02-27T21:09:38.271Z,male_vraiment_flat_148.wav,1,False,785,54,féminin,0,0.000000,-84.148504
03051969,26,0,2024-02-27T21:09:38.271Z,male_vraiment_flat_148.wav,1,False,785,54,féminin,1,0.071043,116.395609
03051969,26,0,2024-02-27T21:09:38.271Z,male_vraiment_flat_148.wav,1,False,785,54,féminin,2,0.142086,22.272455
03051969,26,0,2024-02-27T21:09:38.271Z,male_vraiment_flat_148.wav,1,False,785,54,féminin,3,0.213129,-42.662376
03051969,26,0,2024-02-27T21:09:38.271Z,male_vraiment_flat_148.wav,1,False,785,54,féminin,4,0.284172,44.974228
03051969,26,0,2024-02-27T21:09:38.271Z,male_vraiment_flat_148.wav,1,False,785,54,féminin,5,0.355215,-100.807841
03051969,26,0,2024-02-27T21:09:38.271Z,male_vraiment_flat_148.wav,1,False,785,54,féminin,6,0.426259,75.062158
03051969,27,0,2024-02-27T21:09:38.271Z,male_vraiment_flat_36.wav,0,True,751,54,féminin,0,0.000000,-33.837960
03051969,27,0,2024-02-27T21:09:38.271Z,male_vraiment_flat_36.wav,0,True,751,54,féminin,1,0.071043,102.134309
03051969,27,0,2024-02-27T21:09:38.271Z,male_vraiment_flat_36.wav,0,True,751,54,féminin,2,0.142086,100.949665
03051969,27,0,2024-02-27T21:09:38.271Z,male_vraiment_flat_36.wav,0,True,751,54,féminin,3,0.213129,77.352428
03051969,27,0,2024-02-27T21:09:38.271Z,male_vraiment_flat_36.wav,0,True,751,54,féminin,4,0.284172,-1.995321
03051969,27,0,2024-02-27T21:09:38.271Z,male_vraiment_flat_36.wav,0,True,751,54,féminin,5,0.355215,-13.382838
03051969,27,0,2024-02-27T21:09:38.271Z,male_vraiment_flat_36.wav,0,True,751,54,féminin,6,0.426259,-42.807835
03051969,27,0,2024-02-27T21:09:38.271Z,male_vraiment_flat_32.wav,1,False,751,54,féminin,0,0.000000,-83.957947
03051969,27,0,2024-02-27T21:09:38.271Z,male_vraiment_flat_32.wav,1,False,751,54,féminin,1,0.071043,68.475222
03051969,27,0,2024-02-27T21:09:38.271Z,male_vraiment_flat_32.wav,1,False,751,54,féminin,2,0.142086,-59.489465
03051969,27,0,2024-02-27T21:09:38.271Z,male_vraiment_flat_32.wav,1,False,751,54,féminin,3,0.213129,64.566697
03051969,27,0,2024-02-27T21:09:38.271Z,male_vraiment_flat_32.wav,1,False,751,54,féminin,4,0.284172,-27.267557
03051969,27,0,2024-02-27T21:09:38.271Z,male_vraiment_flat_32.wav,1,False,751,54,féminin,5,0.355215,94.356275
03051969,27,0,2024-02-27T21:09:38.271Z,male_vraiment_flat_32.wav,1,False,751,54,féminin,6,0.426259,27.666308
03051969,28,0,2024-02-27T21:09:38.271Z,male_vraiment_flat_178.wav,0,False,1302,54,féminin,0,0.000000,-112.052653
03051969,28,0,2024-02-27T21:09:38.271Z,male_vraiment_flat_178.wav,0,False,1302,54,féminin,1,0.071043,-21.378049
03051969,28,0,2024-02-27T21:09:38.271Z,male_vraiment_flat_178.wav,0,False,1302,54,féminin,2,0.142086,71.395950
03051969,28,0,2024-02-27T21:09:38.271Z,male_vraiment_flat_178.wav,0,False,1302,54,féminin,3,0.213129,66.817796
03051969,28,0,2024-02-27T21:09:38.271Z,male_vraiment_flat_178.wav,0,False,1302,54,féminin,4,0.284172,25.203350
03051969,28,0,2024-02-27T21:09:38.271Z,male_vraiment_flat_178.wav,0,False,1302,54,féminin,5,0.355215,-37.010641
03051969,28,0,2024-02-27T21:09:38.271Z,male_vraiment_flat_178.wav,0,False,1302,54,féminin,6,0.426259,88.032365
03051969,28,0,2024-02-27T21:09:38.271Z,male_vraiment_flat_196.wav,1,True,1302,54,féminin,0,0.000000,-42.342747
03051969,28,0,2024-02-27T21:09:38.271Z,male_vraiment_flat_196.wav,1,True,1302,54,féminin,1,0.071043,-81.868734
03051969,28,0,2024-02-27T21:09:38.271Z,male_vraiment_flat_196.wav,1,True,1302,54,féminin,2,0.142086,-18.906552
03051969,28,0,2024-02-27T21:09:38.271Z,male_vraiment_flat_196.wav,1,True,1302,54,féminin,3,0.213129,-18.852092
03051969,28,0,2024-02-27T21:09:38.271Z,male_vraiment_flat_196.wav,1,True,1302,54,féminin,4,0.284172,52.116670
03051969,28,0,2024-02-27T21:09:38.271Z,male_vraiment_flat_196.wav,1,True,1302,54,féminin,5,0.355215,90.577409
03051969,28,0,2024-02-27T21:09:38.271Z,male_vraiment_flat_196.wav,1,True,1302,54,féminin,6,0.426259,29.772760
03051969,29,0,2024-02-27T21:09:38.271Z,male_vraiment_flat_134.wav,0,False,1427,54,féminin,0,0.000000,85.320049
03051969,29,0,2024-02-27T21:09:38.271Z,male_vraiment_flat_134.wav,0,False,1427,54,féminin,1,0.071043,2.147850
03051969,29,0,2024-02-27T21:09:38.271Z,male_vraiment_flat_134.wav,0,False,1427,54,féminin,2,0.142086,140.355465
03051969,29,0,2024-02-27T21:09:38.271Z,male_vraiment_flat_134.wav,0,False,1427,54,féminin,3,0.213129,98.923070
03051969,29,0,2024-02-27T21:09:38.271Z,male_vraiment_flat_134.wav,0,False,1427,54,féminin,4,0.284172,20.388975
03051969,29,0,2024-02-27T21:09:38.271Z,male_vraiment_flat_134.wav,0,False,1427,54,féminin,5,0.355215,-4.239426
03051969,29,0,2024-02-27T21:09:38.271Z,male_vraiment_flat_134.wav,0,False,1427,54,féminin,6,0.426259,83.444299
03051969,29,0,2024-02-27T21:09:38.271Z,male_vraiment_flat_159.wav,1,True,1427,54,féminin,0,0.000000,-84.088119
03051969,29,0,2024-02-27T21:09:38.271Z,male_vraiment_flat_159.wav,1,True,1427,54,féminin,1,0.071043,11.677970
03051969,29,0,2024-02-27T21:09:38.271Z,male_vraiment_flat_159.wav,1,True,1427,54,féminin,2,0.142086,70.948823
03051969,29,0,2024-02-27T21:09:38.271Z,male_vraiment_flat_159.wav,1,True,1427,54,féminin,3,0.213129,101.030552
03051969,29,0,2024-02-27T21:09:38.271Z,male_vraiment_flat_159.wav,1,True,1427,54,féminin,4,0.284172,35.233409
03051969,29,0,2024-02-27T21:09:38.271Z,male_vraiment_flat_159.wav,1,True,1427,54,féminin,5,0.355215,70.014692
03051969,29,0,2024-02-27T21:09:38.271Z,male_vraiment_flat_159.wav,1,True,1427,54,féminin,6,0.426259,-21.284009
03051969,30,0,2024-02-27T21:09:38.271Z,male_vraiment_flat_106.wav,0,True,829,54,féminin,0,0.000000,13.442505
03051969,30,0,2024-02-27T21:09:38.271Z,male_vraiment_flat_106.wav,0,True,829,54,féminin,1,0.071043,67.880832
03051969,30,0,2024-02-27T21:09:38.271Z,male_vraiment_flat_106.wav,0,True,829,54,féminin,2,0.142086,105.927648
03051969,30,0,2024-02-27T21:09:38.271Z,male_vraiment_flat_106.wav,0,True,829,54,féminin,3,0.213129,65.041696
03051969,30,0,2024-02-27T21:09:38.271Z,male_vraiment_flat_106.wav,0,True,829,54,féminin,4,0.284172,-59.466654
03051969,30,0,2024-02-27T21:09:38.271Z,male_vraiment_flat_106.wav,0,True,829,54,féminin,5,0.355215,55.710963
03051969,30,0,2024-02-27T21:09:38.271Z,male_vraiment_flat_106.wav,0,True,829,54,féminin,6,0.426259,127.964857
03051969,30,0,2024-02-27T21:09:38.271Z,male_vraiment_flat_25.wav,1,False,829,54,féminin,0,0.000000,-129.422108
03051969,30,0,2024-02-27T21:09:38.271Z,male_vraiment_flat_25.wav,1,False,829,54,féminin,1,0.071043,-12.331663
03051969,30,0,2024-02-27T21:09:38.271Z,male_vraiment_flat_25.wav,1,False,829,54,féminin,2,0.142086,-97.065740
03051969,30,0,2024-02-27T21:09:38.271Z,male_vraiment_flat_25.wav,1,False,829,54,féminin,3,0.213129,-6.253122
03051969,30,0,2024-02-27T21:09:38.271Z,male_vraiment_flat_25.wav,1,False,829,54,féminin,4,0.284172,31.933743
03051969,30,0,2024-02-27T21:09:38.271Z,male_vraiment_flat_25.wav,1,False,829,54,féminin,5,0.355215,-58.415946
03051969,30,0,2024-02-27T21:09:38.271Z,male_vraiment_flat_25.wav,1,False,829,54,féminin,6,0.426259,117.143598
03051969,31,0,2024-02-27T21:09:38.271Z,male_vraiment_flat_15.wav,0,False,2022,54,féminin,0,0.000000,-99.515509
03051969,31,0,2024-02-27T21:09:38.271Z,male_vraiment_flat_15.wav,0,False,2022,54,féminin,1,0.071043,-34.266668
03051969,31,0,2024-02-27T21:09:38.271Z,male_vraiment_flat_15.wav,0,False,2022,54,féminin,2,0.142086,14.847828
03051969,31,0,2024-02-27T21:09:38.271Z,male_vraiment_flat_15.wav,0,False,2022,54,féminin,3,0.213129,69.933849
03051969,31,0,2024-02-27T21:09:38.271Z,male_vraiment_flat_15.wav,0,False,2022,54,féminin,4,0.284172,112.308778
03051969,31,0,2024-02-27T21:09:38.271Z,male_vraiment_flat_15.wav,0,False,2022,54,féminin,5,0.355215,84.391608
03051969,31,0,2024-02-27T21:09:38.271Z,male_vraiment_flat_15.wav,0,False,2022,54,féminin,6,0.426259,-74.687150
03051969,31,0,2024-02-27T21:09:38.271Z,male_vraiment_flat_29.wav,1,True,2022,54,féminin,0,0.000000,78.626852
03051969,31,0,2024-02-27T21:09:38.271Z,male_vraiment_flat_29.wav,1,True,2022,54,féminin,1,0.071043,124.163952
03051969,31,0,2024-02-27T21:09:38.271Z,male_vraiment_flat_29.wav,1,True,2022,54,féminin,2,0.142086,-62.289103
03051969,31,0,2024-02-27T21:09:38.271Z,male_vraiment_flat_29.wav,1,True,2022,54,féminin,3,0.213129,54.806982
03051969,31,0,2024-02-27T21:09:38.271Z,male_vraiment_flat_29.wav,1,True,2022,54,féminin,4,0.284172,75.809549
03051969,31,0,2024-02-27T21:09:38.271Z,male_vraiment_flat_29.wav,1,True,2022,54,féminin,5,0.355215,87.233703
03051969,31,0,2024-02-27T21:09:38.271Z,male_vraiment_flat_29.wav,1,True,2022,54,féminin,6,0.426259,-95.916715
03051969,32,0,2024-02-27T21:09:38.271Z,male_vraiment_flat_21.wav,0,True,1025,54,féminin,0,0.000000,84.422922
03051969,32,0,2024-02-27T21:09:38.271Z,male_vraiment_flat_21.wav,0,True,1025,54,féminin,1,0.071043,34.734306
03051969,32,0,2024-02-27T21:09:38.271Z,male_vraiment_flat_21.wav,0,True,1025,54,féminin,2,0.142086,84.348012
03051969,32,0,2024-02-27T21:09:38.271Z,male_vraiment_flat_21.wav,0,True,1025,54,féminin,3,0.213129,-112.005491
03051969,32,0,2024-02-27T21:09:38.271Z,male_vraiment_flat_21.wav,0,True,1025,54,féminin,4,0.284172,147.407394
03051969,32,0,2024-02-27T21:09:38.271Z,male_vraiment_flat_21.wav,0,True,1025,54,féminin,5,0.355215,-6.622355
03051969,32,0,2024-02-27T21:09:38.271Z,male_vraiment_flat_21.wav,0,True,1025,54,féminin,6,0.426259,125.674103
03051969,32,0,2024-02-27T21:09:38.271Z,male_vraiment_flat_121.wav,1,False,1025,54,féminin,0,0.000000,-58.637887
03051969,32,0,2024-02-27T21:09:38.271Z,male_vraiment_flat_121.wav,1,False,1025,54,féminin,1,0.071043,-104.347196
03051969,32,0,2024-02-27T21:09:38.271Z,male_vraiment_flat_121.wav,1,False,1025,54,féminin,2,0.142086,149.905377
03051969,32,0,2024-02-27T21:09:38.271Z,male_vraiment_flat_121.wav,1,False,1025,54,féminin,3,0.213129,-98.681631
03051969,32,0,2024-02-27T21:09:38.271Z,male_vraiment_flat_121.wav,1,False,1025,54,féminin,4,0.284172,-147.265274
03051969,32,0,2024-02-27T21:09:38.271Z,male_vraiment_flat_121.wav,1,False,1025,54,féminin,5,0.355215,64.587538
03051969,32,0,2024-02-27T21:09:38.271Z,male_vraiment_flat_121.wav,1,False,1025,54,féminin,6,0.426259,26.674605
03051969,33,0,2024-02-27T21:09:38.271Z,male_vraiment_flat_1.wav,0,True,1195,54,féminin,0,0.000000,-87.527114
03051969,33,0,2024-02-27T21:09:38.271Z,male_vraiment_flat_1.wav,0,True,1195,54,féminin,1,0.071043,-24.885537
03051969,33,0,2024-02-27T21:09:38.271Z,male_vraiment_flat_1.wav,0,True,1195,54,féminin,2,0.142086,25.492299
03051969,33,0,2024-02-27T21:09:38.271Z,male_vraiment_flat_1.wav,0,True,1195,54,féminin,3,0.213129,-85.109295
03051969,33,0,2024-02-27T21:09:38.271Z,male_vraiment_flat_1.wav,0,True,1195,54,féminin,4,0.284172,41.982644
03051969,33,0,2024-02-27T21:09:38.271Z,male_vraiment_flat_1.wav,0,True,1195,54,féminin,5,0.355215,-147.448489
03051969,33,0,2024-02-27T21:09:38.271Z,male_vraiment_flat_1.wav,0,True,1195,54,féminin,6,0.426259,3.412386
03051969,33,0,2024-02-27T21:09:38.271Z,male_vraiment_flat_26.wav,1,False,1195,54,féminin,0,0.000000,-135.344658
03051969,33,0,2024-02-27T21:09:38.271Z,male_vraiment_flat_26.wav,1,False,1195,54,féminin,1,0.071043,-76.172858
03051969,33,0,2024-02-27T21:09:38.271Z,male_vraiment_flat_26.wav,1,False,1195,54,féminin,2,0.142086,-130.999312
03051969,33,0,2024-02-27T21:09:38.271Z,male_vraiment_flat_26.wav,1,False,1195,54,féminin,3,0.213129,-146.306144
03051969,33,0,2024-02-27T21:09:38.271Z,male_vraiment_flat_26.wav,1,False,1195,54,féminin,4,0.284172,-78.266251
03051969,33,0,2024-02-27T21:09:38.271Z,male_vraiment_flat_26.wav,1,False,1195,54,féminin,5,0.355215,30.254136
03051969,33,0,2024-02-27T21:09:38.271Z,male_vraiment_flat_26.wav,1,False,1195,54,féminin,6,0.426259,-114.179281
03051969,34,0,2024-02-27T21:09:38.271Z,male_vraiment_flat_82.wav,0,False,1469,54,féminin,0,0.000000,14.171085
03051969,34,0,2024-02-27T21:09:38.271Z,male_vraiment_flat_82.wav,0,False,1469,54,féminin,1,0.071043,-68.153896
03051969,34,0,2024-02-27T21:09:38.271Z,male_vraiment_flat_82.wav,0,False,1469,54,féminin,2,0.142086,-24.679362
03051969,34,0,2024-02-27T21:09:38.271Z,male_vraiment_flat_82.wav,0,False,1469,54,féminin,3,0.213129,-58.364866
03051969,34,0,2024-02-27T21:09:38.271Z,male_vraiment_flat_82.wav,0,False,1469,54,féminin,4,0.284172,-35.694955
03051969,34,0,2024-02-27T21:09:38.271Z,male_vraiment_flat_82.wav,0,False,1469,54,féminin,5,0.355215,-79.701050
03051969,34,0,2024-02-27T21:09:38.271Z,male_vraiment_flat_82.wav,0,False,1469,54,féminin,6,0.426259,-70.571097
03051969,34,0,2024-02-27T21:09:38.271Z,male_vraiment_flat_163.wav,1,True,1469,54,féminin,0,0.000000,-73.767207
03051969,34,0,2024-02-27T21:09:38.271Z,male_vraiment_flat_163.wav,1,True,1469,54,féminin,1,0.071043,23.213677
03051969,34,0,2024-02-27T21:09:38.271Z,male_vraiment_flat_163.wav,1,True,1469,54,féminin,2,0.142086,-14.939662
03051969,34,0,2024-02-27T21:09:38.271Z,male_vraiment_flat_163.wav,1,True,1469,54,féminin,3,0.213129,-71.864469
03051969,34,0,2024-02-27T21:09:38.271Z,male_vraiment_flat_163.wav,1,True,1469,54,féminin,4,0.284172,-38.295965
03051969,34,0,2024-02-27T21:09:38.271Z,male_vraiment_flat_163.wav,1,True,1469,54,féminin,5,0.355215,-52.851418
03051969,34,0,2024-02-27T21:09:38.271Z,male_vraiment_flat_163.wav,1,True,1469,54,féminin,6,0.426259,-70.943671
03051969,35,0,2024-02-27T21:09:38.271Z,male_vraiment_flat_86.wav,0,True,684,54,féminin,0,0.000000,85.260205
03051969,35,0,2024-02-27T21:09:38.271Z,male_vraiment_flat_86.wav,0,True,684,54,féminin,1,0.071043,-4.684566
03051969,35,0,2024-02-27T21:09:38.271Z,male_vraiment_flat_86.wav,0,True,684,54,féminin,2,0.142086,133.406345
03051969,35,0,2024-02-27T21:09:38.271Z,male_vraiment_flat_86.wav,0,True,684,54,féminin,3,0.213129,110.454503
03051969,35,0,2024-02-27T21:09:38.271Z,male_vraiment_flat_86.wav,0,True,684,54,féminin,4,0.284172,38.373367
03051969,35,0,2024-02-27T21:09:38.271Z,male_vraiment_flat_86.wav,0,True,684,54,féminin,5,0.355215,75.992097
03051969,35,0,2024-02-27T21:09:38.271Z,male_vraiment_flat_86.wav,0,True,684,54,féminin,6,0.426259,-87.651019
03051969,35,0,2024-02-27T21:09:38.271Z,male_vraiment_flat_197.wav,1,False,684,54,féminin,0,0.000000,7.012988
03051969,35,0,2024-02-27T21:09:38.271Z,male_vraiment_flat_197.wav,1,False,684,54,féminin,1,0.071043,64.551185
03051969,35,0,2024-02-27T21:09:38.271Z,male_vraiment_flat_197.wav,1,False,684,54,féminin,2,0.142086,-65.392523
03051969,35,0,2024-02-27T21:09:38.271Z,male_vraiment_flat_197.wav,1,False,684,54,féminin,3,0.213129,18.180118
03051969,35,0,2024-02-27T21:09:38.271Z,male_vraiment_flat_197.wav,1,False,684,54,féminin,4,0.284172,-30.775220
03051969,35,0,2024-02-27T21:09:38.271Z,male_vraiment_flat_197.wav,1,False,684,54,féminin,5,0.355215,95.802549
03051969,35,0,2024-02-27T21:09:38.271Z,male_vraiment_flat_197.wav,1,False,684,54,féminin,6,0.426259,-129.373786
03051969,36,0,2024-02-27T21:09:38.271Z,male_vraiment_flat_46.wav,0,True,1254,54,féminin,0,0.000000,48.231571
03051969,36,0,2024-02-27T21:09:38.271Z,male_vraiment_flat_46.wav,0,True,1254,54,féminin,1,0.071043,-13.386862
03051969,36,0,2024-02-27T21:09:38.271Z,male_vraiment_flat_46.wav,0,True,1254,54,féminin,2,0.142086,107.175029
03051969,36,0,2024-02-27T21:09:38.271Z,male_vraiment_flat_46.wav,0,True,1254,54,féminin,3,0.213129,24.056117
03051969,36,0,2024-02-27T21:09:38.271Z,male_vraiment_flat_46.wav,0,True,1254,54,féminin,4,0.284172,72.951541
03051969,36,0,2024-02-27T21:09:38.271Z,male_vraiment_flat_46.wav,0,True,1254,54,féminin,5,0.355215,123.539508
03051969,36,0,2024-02-27T21:09:38.271Z,male_vraiment_flat_46.wav,0,True,1254,54,féminin,6,0.426259,50.410407
03051969,36,0,2024-02-27T21:09:38.271Z,male_vraiment_flat_165.wav,1,False,1254,54,féminin,0,0.000000,-133.486308
03051969,36,0,2024-02-27T21:09:38.271Z,male_vraiment_flat_165.wav,1,False,1254,54,féminin,1,0.071043,-51.704384
03051969,36,0,2024-02-27T21:09:38.271Z,male_vraiment_flat_165.wav,1,False,1254,54,féminin,2,0.142086,123.734410
03051969,36,0,2024-02-27T21:09:38.271Z,male_vraiment_flat_165.wav,1,False,1254,54,féminin,3,0.213129,-122.063627
03051969,36,0,2024-02-27T21:09:38.271Z,male_vraiment_flat_165.wav,1,False,1254,54,féminin,4,0.284172,105.373754
03051969,36,0,2024-02-27T21:09:38.271Z,male_vraiment_flat_165.wav,1,False,1254,54,féminin,5,0.355215,42.489978
03051969,36,0,2024-02-27T21:09:38.271Z,male_vraiment_flat_165.wav,1,False,1254,54,féminin,6,0.426259,65.536300
03051969,37,0,2024-02-27T21:09:38.271Z,male_vraiment_flat_62.wav,0,False,954,54,féminin,0,0.000000,-118.782832
03051969,37,0,2024-02-27T21:09:38.271Z,male_vraiment_flat_62.wav,0,False,954,54,féminin,1,0.071043,-35.995173
03051969,37,0,2024-02-27T21:09:38.271Z,male_vraiment_flat_62.wav,0,False,954,54,féminin,2,0.142086,21.697311
03051969,37,0,2024-02-27T21:09:38.271Z,male_vraiment_flat_62.wav,0,False,954,54,féminin,3,0.213129,22.125919
03051969,37,0,2024-02-27T21:09:38.271Z,male_vraiment_flat_62.wav,0,False,954,54,féminin,4,0.284172,-42.995885
03051969,37,0,2024-02-27T21:09:38.271Z,male_vraiment_flat_62.wav,0,False,954,54,féminin,5,0.355215,-84.376770
03051969,37,0,2024-02-27T21:09:38.271Z,male_vraiment_flat_62.wav,0,False,954,54,féminin,6,0.426259,-12.230862
03051969,37,0,2024-02-27T21:09:38.271Z,male_vraiment_flat_35.wav,1,True,954,54,féminin,0,0.000000,-80.907759
03051969,37,0,2024-02-27T21:09:38.271Z,male_vraiment_flat_35.wav,1,True,954,54,féminin,1,0.071043,-44.446048
03051969,37,0,2024-02-27T21:09:38.271Z,male_vraiment_flat_35.wav,1,True,954,54,féminin,2,0.142086,-51.579277
03051969,37,0,2024-02-27T21:09:38.271Z,male_vraiment_flat_35.wav,1,True,954,54,féminin,3,0.213129,-66.764099
03051969,37,0,2024-02-27T21:09:38.271Z,male_vraiment_flat_35.wav,1,True,954,54,féminin,4,0.284172,-35.478686
03051969,37,0,2024-02-27T21:09:38.271Z,male_vraiment_flat_35.wav,1,True,954,54,féminin,5,0.355215,-86.823570
03051969,37,0,2024-02-27T21:09:38.271Z,male_vraiment_flat_35.wav,1,True,954,54,féminin,6,0.426259,26.550026
03051969,38,0,2024-02-27T21:09:38.271Z,male_vraiment_flat_99.wav,0,False,726,54,féminin,0,0.000000,-67.009894
03051969,38,0,2024-02-27T21:09:38.271Z,male_vraiment_flat_99.wav,0,False,726,54,féminin,1,0.071043,-124.385437
03051969,38,0,2024-02-27T21:09:38.271Z,male_vraiment_flat_99.wav,0,False,726,54,féminin,2,0.142086,-32.338754
03051969,38,0,2024-02-27T21:09:38.271Z,male_vraiment_flat_99.wav,0,False,726,54,féminin,3,0.213129,-145.840775
03051969,38,0,2024-02-27T21:09:38.271Z,male_vraiment_flat_99.wav,0,False,726,54,féminin,4,0.284172,-6.786611
03051969,38,0,2024-02-27T21:09:38.271Z,male_vraiment_flat_99.wav,0,False,726,54,féminin,5,0.355215,89.278278
03051969,38,0,2024-02-27T21:09:38.271Z,male_vraiment_flat_99.wav,0,False,726,54,féminin,6,0.426259,-47.823672
03051969,38,0,2024-02-27T21:09:38.271Z,male_vraiment_flat_145.wav,1,True,726,54,féminin,0,0.000000,-57.363512
03051969,38,0,2024-02-27T21:09:38.271Z,male_vraiment_flat_145.wav,1,True,726,54,féminin,1,0.071043,98.212837
03051969,38,0,2024-02-27T21:09:38.271Z,male_vraiment_flat_145.wav,1,True,726,54,féminin,2,0.142086,141.769894
03051969,38,0,2024-02-27T21:09:38.271Z,male_vraiment_flat_145.wav,1,True,726,54,féminin,3,0.213129,137.732142
03051969,38,0,2024-02-27T21:09:38.271Z,male_vraiment_flat_145.wav,1,True,726,54,féminin,4,0.284172,20.834317
03051969,38,0,2024-02-27T21:09:38.271Z,male_vraiment_flat_145.wav,1,True,726,54,féminin,5,0.355215,-134.972350
03051969,38,0,2024-02-27T21:09:38.271Z,male_vraiment_flat_145.wav,1,True,726,54,féminin,6,0.426259,-28.162434
03051969,39,0,2024-02-27T21:09:38.271Z,male_vraiment_flat_177.wav,0,True,1039,54,féminin,0,0.000000,16.306046
03051969,39,0,2024-02-27T21:09:38.271Z,male_vraiment_flat_177.wav,0,True,1039,54,féminin,1,0.071043,49.193464
03051969,39,0,2024-02-27T21:09:38.271Z,male_vraiment_flat_177.wav,0,True,1039,54,féminin,2,0.142086,-57.450827
03051969,39,0,2024-02-27T21:09:38.271Z,male_vraiment_flat_177.wav,0,True,1039,54,féminin,3,0.213129,-71.200742
03051969,39,0,2024-02-27T21:09:38.271Z,male_vraiment_flat_177.wav,0,True,1039,54,féminin,4,0.284172,75.759547
03051969,39,0,2024-02-27T21:09:38.271Z,male_vraiment_flat_177.wav,0,True,1039,54,féminin,5,0.355215,-147.097868
03051969,39,0,2024-02-27T21:09:38.271Z,male_vraiment_flat_177.wav,0,True,1039,54,féminin,6,0.426259,-23.614561
03051969,39,0,2024-02-27T21:09:38.271Z,male_vraiment_flat_50.wav,1,False,1039,54,féminin,0,0.000000,96.336182
03051969,39,0,2024-02-27T21:09:38.271Z,male_vraiment_flat_50.wav,1,False,1039,54,féminin,1,0.071043,-104.561128
03051969,39,0,2024-02-27T21:09:38.271Z,male_vraiment_flat_50.wav,1,False,1039,54,féminin,2,0.142086,-130.066913
03051969,39,0,2024-02-27T21:09:38.271Z,male_vraiment_flat_50.wav,1,False,1039,54,féminin,3,0.213129,-24.308766
03051969,39,0,2024-02-27T21:09:38.271Z,male_vraiment_flat_50.wav,1,False,1039,54,féminin,4,0.284172,40.127472
03051969,39,0,2024-02-27T21:09:38.271Z,male_vraiment_flat_50.wav,1,False,1039,54,féminin,5,0.355215,49.388454
03051969,39,0,2024-02-27T21:09:38.271Z,male_vraiment_flat_50.wav,1,False,1039,54,féminin,6,0.426259,116.704022
03051969,40,0,2024-02-27T21:09:38.271Z,male_vraiment_flat_194.wav,0,True,1143,54,féminin,0,0.000000,104.124735
03051969,40,0,2024-02-27T21:09:38.271Z,male_vraiment_flat_194.wav,0,True,1143,54,féminin,1,0.071043,-92.067392
03051969,40,0,2024-02-27T21:09:38.271Z,male_vraiment_flat_194.wav,0,True,1143,54,féminin,2,0.142086,-108.808255
03051969,40,0,2024-02-27T21:09:38.271Z,male_vraiment_flat_194.wav,0,True,1143,54,féminin,3,0.213129,99.267416
03051969,40,0,2024-02-27T21:09:38.271Z,male_vraiment_flat_194.wav,0,True,1143,54,féminin,4,0.284172,-26.685302
03051969,40,0,2024-02-27T21:09:38.271Z,male_vraiment_flat_194.wav,0,True,1143,54,féminin,5,0.355215,97.824367
03051969,40,0,2024-02-27T21:09:38.271Z,male_vraiment_flat_194.wav,0,True,1143,54,féminin,6,0.426259,-69.402109
03051969,40,0,2024-02-27T21:09:38.271Z,male_vraiment_flat_169.wav,1,False,1143,54,féminin,0,0.000000,117.441793
03051969,40,0,2024-02-27T21:09:38.271Z,male_vraiment_flat_169.wav,1,False,1143,54,féminin,1,0.071043,-117.459261
03051969,40,0,2024-02-27T21:09:38.271Z,male_vraiment_flat_169.wav,1,False,1143,54,féminin,2,0.142086,-45.020491
03051969,40,0,2024-02-27T21:09:38.271Z,male_vraiment_flat_169.wav,1,False,1143,54,féminin,3,0.213129,-67.699150
03051969,40,0,2024-02-27T21:09:38.271Z,male_vraiment_flat_169.wav,1,False,1143,54,féminin,4,0.284172,-122.755451
03051969,40,0,2024-02-27T21:09:38.271Z,male_vraiment_flat_169.wav,1,False,1143,54,féminin,5,0.355215,-10.702133
03051969,40,0,2024-02-27T21:09:38.271Z,male_vraiment_flat_169.wav,1,False,1143,54,féminin,6,0.426259,66.943327
03051969,41,0,2024-02-27T21:09:38.271Z,male_vraiment_flat_144.wav,0,True,840,54,féminin,0,0.000000,-68.167624
03051969,41,0,2024-02-27T21:09:38.271Z,male_vraiment_flat_144.wav,0,True,840,54,féminin,1,0.071043,-79.458647
03051969,41,0,2024-02-27T21:09:38.271Z,male_vraiment_flat_144.wav,0,True,840,54,féminin,2,0.142086,-79.660425
03051969,41,0,2024-02-27T21:09:38.271Z,male_vraiment_flat_144.wav,0,True,840,54,féminin,3,0.213129,60.124898
03051969,41,0,2024-02-27T21:09:38.271Z,male_vraiment_flat_144.wav,0,True,840,54,féminin,4,0.284172,21.367664
03051969,41,0,2024-02-27T21:09:38.271Z,male_vraiment_flat_144.wav,0,True,840,54,féminin,5,0.355215,44.158096
03051969,41,0,2024-02-27T21:09:38.271Z,male_vraiment_flat_144.wav,0,True,840,54,féminin,6,0.426259,60.089593
03051969,41,0,2024-02-27T21:09:38.271Z,male_vraiment_flat_73.wav,1,False,840,54,féminin,0,0.000000,116.322519
03051969,41,0,2024-02-27T21:09:38.271Z,male_vraiment_flat_73.wav,1,False,840,54,féminin,1,0.071043,-36.491811
03051969,41,0,2024-02-27T21:09:38.271Z,male_vraiment_flat_73.wav,1,False,840,54,féminin,2,0.142086,56.992902
03051969,41,0,2024-02-27T21:09:38.271Z,male_vraiment_flat_73.wav,1,False,840,54,féminin,3,0.213129,-102.405714
03051969,41,0,2024-02-27T21:09:38.271Z,male_vraiment_flat_73.wav,1,False,840,54,féminin,4,0.284172,18.027278
03051969,41,0,2024-02-27T21:09:38.271Z,male_vraiment_flat_73.wav,1,False,840,54,féminin,5,0.355215,92.986932
03051969,41,0,2024-02-27T21:09:38.271Z,male_vraiment_flat_73.wav,1,False,840,54,féminin,6,0.426259,-12.148577
03051969,42,0,2024-02-27T21:09:38.271Z,male_vraiment_flat_100.wav,0,True,1314,54,féminin,0,0.000000,43.543409
03051969,42,0,2024-02-27T21:09:38.271Z,male_vraiment_flat_100.wav,0,True,1314,54,féminin,1,0.071043,103.015481
03051969,42,0,2024-02-27T21:09:38.271Z,male_vraiment_flat_100.wav,0,True,1314,54,féminin,2,0.142086,72.119204
03051969,42,0,2024-02-27T21:09:38.271Z,male_vraiment_flat_100.wav,0,True,1314,54,féminin,3,0.213129,-134.244223
03051969,42,0,2024-02-27T21:09:38.271Z,male_vraiment_flat_100.wav,0,True,1314,54,féminin,4,0.284172,118.896008
03051969,42,0,2024-02-27T21:09:38.271Z,male_vraiment_flat_100.wav,0,True,1314,54,féminin,5,0.355215,-31.136245
03051969,42,0,2024-02-27T21:09:38.271Z,male_vraiment_flat_100.wav,0,True,1314,54,féminin,6,0.426259,41.834207
03051969,42,0,2024-02-27T21:09:38.271Z,male_vraiment_flat_51.wav,1,False,1314,54,féminin,0,0.000000,130.517111
03051969,42,0,2024-02-27T21:09:38.271Z,male_vraiment_flat_51.wav,1,False,1314,54,féminin,1,0.071043,138.869679
03051969,42,0,2024-02-27T21:09:38.271Z,male_vraiment_flat_51.wav,1,False,1314,54,féminin,2,0.142086,-34.276776
03051969,42,0,2024-02-27T21:09:38.271Z,male_vraiment_flat_51.wav,1,False,1314,54,féminin,3,0.213129,76.935346
03051969,42,0,2024-02-27T21:09:38.271Z,male_vraiment_flat_51.wav,1,False,1314,54,féminin,4,0.284172,-118.523911
03051969,42,0,2024-02-27T21:09:38.271Z,male_vraiment_flat_51.wav,1,False,1314,54,féminin,5,0.355215,-103.328524
03051969,42,0,2024-02-27T21:09:38.271Z,male_vraiment_flat_51.wav,1,False,1314,54,féminin,6,0.426259,-14.442096
03051969,43,0,2024-02-27T21:09:38.271Z,male_vraiment_flat_189.wav,0,False,759,54,féminin,0,0.000000,53.448621
03051969,43,0,2024-02-27T21:09:38.271Z,male_vraiment_flat_189.wav,0,False,759,54,féminin,1,0.071043,82.292801
03051969,43,0,2024-02-27T21:09:38.271Z,male_vraiment_flat_189.wav,0,False,759,54,féminin,2,0.142086,-89.509706
03051969,43,0,2024-02-27T21:09:38.271Z,male_vraiment_flat_189.wav,0,False,759,54,féminin,3,0.213129,61.203077
03051969,43,0,2024-02-27T21:09:38.271Z,male_vraiment_flat_189.wav,0,False,759,54,féminin,4,0.284172,-64.080431
03051969,43,0,2024-02-27T21:09:38.271Z,male_vraiment_flat_189.wav,0,False,759,54,féminin,5,0.355215,71.408242
03051969,43,0,2024-02-27T21:09:38.271Z,male_vraiment_flat_189.wav,0,False,759,54,féminin,6,0.426259,-96.299976
03051969,43,0,2024-02-27T21:09:38.271Z,male_vraiment_flat_166.wav,1,True,759,54,féminin,0,0.000000,40.484109
03051969,43,0,2024-02-27T21:09:38.271Z,male_vraiment_flat_166.wav,1,True,759,54,féminin,1,0.071043,-10.250913
03051969,43,0,2024-02-27T21:09:38.271Z,male_vraiment_flat_166.wav,1,True,759,54,féminin,2,0.142086,-109.726305
03051969,43,0,2024-02-27T21:09:38.271Z,male_vraiment_flat_166.wav,1,True,759,54,féminin,3,0.213129,-32.205058
03051969,43,0,2024-02-27T21:09:38.271Z,male_vraiment_flat_166.wav,1,True,759,54,féminin,4,0.284172,141.461363
03051969,43,0,2024-02-27T21:09:38.271Z,male_vraiment_flat_166.wav,1,True,759,54,féminin,5,0.355215,65.199031
03051969,43,0,2024-02-27T21:09:38.271Z,male_vraiment_flat_166.wav,1,True,759,54,féminin,6,0.426259,-54.014549
03051969,44,0,2024-02-27T21:09:38.271Z,male_vraiment_flat_110.wav,0,False,804,54,féminin,0,0.000000,-78.850505
03051969,44,0,2024-02-27T21:09:38.271Z,male_vraiment_flat_110.wav,0,False,804,54,féminin,1,0.071043,-96.953533
03051969,44,0,2024-02-27T21:09:38.271Z,male_vraiment_flat_110.wav,0,False,804,54,féminin,2,0.142086,-38.365791
03051969,44,0,2024-02-27T21:09:38.271Z,male_vraiment_flat_110.wav,0,False,804,54,féminin,3,0.213129,77.506607
03051969,44,0,2024-02-27T21:09:38.271Z,male_vraiment_flat_110.wav,0,False,804,54,féminin,4,0.284172,-64.506238
03051969,44,0,2024-02-27T21:09:38.271Z,male_vraiment_flat_110.wav,0,False,804,54,féminin,5,0.355215,15.353748
03051969,44,0,2024-02-27T21:09:38.271Z,male_vraiment_flat_110.wav,0,False,804,54,féminin,6,0.426259,121.287299
03051969,44,0,2024-02-27T21:09:38.271Z,male_vraiment_flat_53.wav,1,True,804,54,féminin,0,0.000000,12.794375
03051969,44,0,2024-02-27T21:09:38.271Z,male_vraiment_flat_53.wav,1,True,804,54,féminin,1,0.071043,72.488609
03051969,44,0,2024-02-27T21:09:38.271Z,male_vraiment_flat_53.wav,1,True,804,54,féminin,2,0.142086,82.753367
03051969,44,0,2024-02-27T21:09:38.271Z,male_vraiment_flat_53.wav,1,True,804,54,féminin,3,0.213129,-11.724600
03051969,44,0,2024-02-27T21:09:38.271Z,male_vraiment_flat_53.wav,1,True,804,54,féminin,4,0.284172,8.499299
03051969,44,0,2024-02-27T21:09:38.271Z,male_vraiment_flat_53.wav,1,True,804,54,féminin,5,0.355215,84.468722
03051969,44,0,2024-02-27T21:09:38.271Z,male_vraiment_flat_53.wav,1,True,804,54,féminin,6,0.426259,-88.580062
03051969,45,0,2024-02-27T21:09:38.271Z,male_vraiment_flat_138.wav,0,True,981,54,féminin,0,0.000000,-29.536298
03051969,45,0,2024-02-27T21:09:38.271Z,male_vraiment_flat_138.wav,0,True,981,54,féminin,1,0.071043,90.685935
03051969,45,0,2024-02-27T21:09:38.271Z,male_vraiment_flat_138.wav,0,True,981,54,féminin,2,0.142086,-77.044346
03051969,45,0,2024-02-27T21:09:38.271Z,male_vraiment_flat_138.wav,0,True,981,54,féminin,3,0.213129,-75.264885
03051969,45,0,2024-02-27T21:09:38.271Z,male_vraiment_flat_138.wav,0,True,981,54,féminin,4,0.284172,-129.490236
03051969,45,0,2024-02-27T21:09:38.271Z,male_vraiment_flat_138.wav,0,True,981,54,féminin,5,0.355215,-48.940612
03051969,45,0,2024-02-27T21:09:38.271Z,male_vraiment_flat_138.wav,0,True,981,54,féminin,6,0.426259,-95.647001
03051969,45,0,2024-02-27T21:09:38.271Z,male_vraiment_flat_104.wav,1,False,981,54,féminin,0,0.000000,-70.174686
03051969,45,0,2024-02-27T21:09:38.271Z,male_vraiment_flat_104.wav,1,False,981,54,féminin,1,0.071043,-64.753986
03051969,45,0,2024-02-27T21:09:38.271Z,male_vraiment_flat_104.wav,1,False,981,54,féminin,2,0.142086,-116.293490
03051969,45,0,2024-02-27T21:09:38.271Z,male_vraiment_flat_104.wav,1,False,981,54,féminin,3,0.213129,-63.059369
03051969,45,0,2024-02-27T21:09:38.271Z,male_vraiment_flat_104.wav,1,False,981,54,féminin,4,0.284172,102.899256
03051969,45,0,2024-02-27T21:09:38.271Z,male_vraiment_flat_104.wav,1,False,981,54,féminin,5,0.355215,-142.936640
03051969,45,0,2024-02-27T21:09:38.271Z,male_vraiment_flat_104.wav,1,False,981,54,féminin,6,0.426259,-16.173865
03051969,46,0,2024-02-27T21:09:38.271Z,male_vraiment_flat_30.wav,0,True,692,54,féminin,0,0.000000,32.600333
03051969,46,0,2024-02-27T21:09:38.271Z,male_vraiment_flat_30.wav,0,True,692,54,féminin,1,0.071043,42.125884
03051969,46,0,2024-02-27T21:09:38.271Z,male_vraiment_flat_30.wav,0,True,692,54,féminin,2,0.142086,124.172285
03051969,46,0,2024-02-27T21:09:38.271Z,male_vraiment_flat_30.wav,0,True,692,54,féminin,3,0.213129,52.679052
03051969,46,0,2024-02-27T21:09:38.271Z,male_vraiment_flat_30.wav,0,True,692,54,féminin,4,0.284172,-111.889461
03051969,46,0,2024-02-27T21:09:38.271Z,male_vraiment_flat_30.wav,0,True,692,54,féminin,5,0.355215,64.478579
03051969,46,0,2024-02-27T21:09:38.271Z,male_vraiment_flat_30.wav,0,True,692,54,féminin,6,0.426259,22.023880
03051969,46,0,2024-02-27T21:09:38.271Z,male_vraiment_flat_172.wav,1,False,692,54,féminin,0,0.000000,-63.308139
03051969,46,0,2024-02-27T21:09:38.271Z,male_vraiment_flat_172.wav,1,False,692,54,féminin,1,0.071043,-111.693367
03051969,46,0,2024-02-27T21:09:38.271Z,male_vraiment_flat_172.wav,1,False,692,54,féminin,2,0.142086,-61.444624
03051969,46,0,2024-02-27T21:09:38.271Z,male_vraiment_flat_172.wav,1,False,692,54,féminin,3,0.213129,137.201589
03051969,46,0,2024-02-27T21:09:38.271Z,male_vraiment_flat_172.wav,1,False,692,54,féminin,4,0.284172,-132.973462
03051969,46,0,2024-02-27T21:09:38.271Z,male_vraiment_flat_172.wav,1,False,692,54,féminin,5,0.355215,-126.405577
03051969,46,0,2024-02-27T21:09:38.271Z,male_vraiment_flat_172.wav,1,False,692,54,féminin,6,0.426259,-119.840486
03051969,47,0,2024-02-27T21:09:38.271Z,male_vraiment_flat_83.wav,0,True,1266,54,féminin,0,0.000000,-23.907946
03051969,47,0,2024-02-27T21:09:38.271Z,male_vraiment_flat_83.wav,0,True,1266,54,féminin,1,0.071043,-0.791729
03051969,47,0,2024-02-27T21:09:38.271Z,male_vraiment_flat_83.wav,0,True,1266,54,féminin,2,0.142086,23.610634
03051969,47,0,2024-02-27T21:09:38.271Z,male_vraiment_flat_83.wav,0,True,1266,54,féminin,3,0.213129,-35.411923
03051969,47,0,2024-02-27T21:09:38.271Z,male_vraiment_flat_83.wav,0,True,1266,54,féminin,4,0.284172,101.109402
03051969,47,0,2024-02-27T21:09:38.271Z,male_vraiment_flat_83.wav,0,True,1266,54,féminin,5,0.355215,-51.929212
03051969,47,0,2024-02-27T21:09:38.271Z,male_vraiment_flat_83.wav,0,True,1266,54,féminin,6,0.426259,-104.958378
03051969,47,0,2024-02-27T21:09:38.271Z,male_vraiment_flat_143.wav,1,False,1266,54,féminin,0,0.000000,-11.669164
03051969,47,0,2024-02-27T21:09:38.271Z,male_vraiment_flat_143.wav,1,False,1266,54,féminin,1,0.071043,-18.385217
03051969,47,0,2024-02-27T21:09:38.271Z,male_vraiment_flat_143.wav,1,False,1266,54,féminin,2,0.142086,88.645793
03051969,47,0,2024-02-27T21:09:38.271Z,male_vraiment_flat_143.wav,1,False,1266,54,féminin,3,0.213129,-2.720338
03051969,47,0,2024-02-27T21:09:38.271Z,male_vraiment_flat_143.wav,1,False,1266,54,féminin,4,0.284172,-37.224869
03051969,47,0,2024-02-27T21:09:38.271Z,male_vraiment_flat_143.wav,1,False,1266,54,féminin,5,0.355215,-143.685714
03051969,47,0,2024-02-27T21:09:38.271Z,male_vraiment_flat_143.wav,1,False,1266,54,féminin,6,0.426259,-125.491494
03051969,48,0,2024-02-27T21:09:38.271Z,male_vraiment_flat_93.wav,0,True,1575,54,féminin,0,0.000000,89.760217
03051969,48,0,2024-02-27T21:09:38.271Z,male_vraiment_flat_93.wav,0,True,1575,54,féminin,1,0.071043,18.591855
03051969,48,0,2024-02-27T21:09:38.271Z,male_vraiment_flat_93.wav,0,True,1575,54,féminin,2,0.142086,63.582537
03051969,48,0,2024-02-27T21:09:38.271Z,male_vraiment_flat_93.wav,0,True,1575,54,féminin,3,0.213129,147.491611
03051969,48,0,2024-02-27T21:09:38.271Z,male_vraiment_flat_93.wav,0,True,1575,54,féminin,4,0.284172,-113.128196
03051969,48,0,2024-02-27T21:09:38.271Z,male_vraiment_flat_93.wav,0,True,1575,54,féminin,5,0.355215,12.197118
03051969,48,0,2024-02-27T21:09:38.271Z,male_vraiment_flat_93.wav,0,True,1575,54,féminin,6,0.426259,-36.730637
03051969,48,0,2024-02-27T21:09:38.271Z,male_vraiment_flat_160.wav,1,False,1575,54,féminin,0,0.000000,21.342691
03051969,48,0,2024-02-27T21:09:38.271Z,male_vraiment_flat_160.wav,1,False,1575,54,féminin,1,0.071043,-76.780347
03051969,48,0,2024-02-27T21:09:38.271Z,male_vraiment_flat_160.wav,1,False,1575,54,féminin,2,0.142086,-127.843887
03051969,48,0,2024-02-27T21:09:38.271Z,male_vraiment_flat_160.wav,1,False,1575,54,féminin,3,0.213129,-126.126744
03051969,48,0,2024-02-27T21:09:38.271Z,male_vraiment_flat_160.wav,1,False,1575,54,féminin,4,0.284172,-33.722090
03051969,48,0,2024-02-27T21:09:38.271Z,male_vraiment_flat_160.wav,1,False,1575,54,féminin,5,0.355215,18.600024
03051969,48,0,2024-02-27T21:09:38.271Z,male_vraiment_flat_160.wav,1,False,1575,54,féminin,6,0.426259,-57.157597
03051969,49,0,2024-02-27T21:09:38.271Z,male_vraiment_flat_158.wav,0,False,1202,54,féminin,0,0.000000,140.907348
03051969,49,0,2024-02-27T21:09:38.271Z,male_vraiment_flat_158.wav,0,False,1202,54,féminin,1,0.071043,56.647301
03051969,49,0,2024-02-27T21:09:38.271Z,male_vraiment_flat_158.wav,0,False,1202,54,féminin,2,0.142086,-121.852756
03051969,49,0,2024-02-27T21:09:38.271Z,male_vraiment_flat_158.wav,0,False,1202,54,féminin,3,0.213129,24.887877
03051969,49,0,2024-02-27T21:09:38.271Z,male_vraiment_flat_158.wav,0,False,1202,54,féminin,4,0.284172,-16.147612
03051969,49,0,2024-02-27T21:09:38.271Z,male_vraiment_flat_158.wav,0,False,1202,54,féminin,5,0.355215,22.171837
03051969,49,0,2024-02-27T21:09:38.271Z,male_vraiment_flat_158.wav,0,False,1202,54,féminin,6,0.426259,-49.022546
03051969,49,0,2024-02-27T21:09:38.271Z,male_vraiment_flat_108.wav,1,True,1202,54,féminin,0,0.000000,92.203113
03051969,49,0,2024-02-27T21:09:38.271Z,male_vraiment_flat_108.wav,1,True,1202,54,féminin,1,0.071043,-74.681876
03051969,49,0,2024-02-27T21:09:38.271Z,male_vraiment_flat_108.wav,1,True,1202,54,féminin,2,0.142086,-18.773488
03051969,49,0,2024-02-27T21:09:38.271Z,male_vraiment_flat_108.wav,1,True,1202,54,féminin,3,0.213129,73.054230
03051969,49,0,2024-02-27T21:09:38.271Z,male_vraiment_flat_108.wav,1,True,1202,54,féminin,4,0.284172,-72.824646
03051969,49,0,2024-02-27T21:09:38.271Z,male_vraiment_flat_108.wav,1,True,1202,54,féminin,5,0.355215,140.895697
03051969,49,0,2024-02-27T21:09:38.271Z,male_vraiment_flat_108.wav,1,True,1202,54,féminin,6,0.426259,13.161932
03051969,50,1,2024-02-27T21:09:38.271Z,male_vraiment_flat_85.wav,0,False,1543,54,féminin,0,0.000000,16.220058
03051969,50,1,2024-02-27T21:09:38.271Z,male_vraiment_flat_85.wav,0,False,1543,54,féminin,1,0.071043,97.172848
03051969,50,1,2024-02-27T21:09:38.271Z,male_vraiment_flat_85.wav,0,False,1543,54,féminin,2,0.142086,121.919735
03051969,50,1,2024-02-27T21:09:38.271Z,male_vraiment_flat_85.wav,0,False,1543,54,féminin,3,0.213129,69.049273
03051969,50,1,2024-02-27T21:09:38.271Z,male_vraiment_flat_85.wav,0,False,1543,54,féminin,4,0.284172,124.256579
03051969,50,1,2024-02-27T21:09:38.271Z,male_vraiment_flat_85.wav,0,False,1543,54,féminin,5,0.355215,30.981006
03051969,50,1,2024-02-27T21:09:38.271Z,male_vraiment_flat_85.wav,0,False,1543,54,féminin,6,0.426259,-67.410158
03051969,50,1,2024-02-27T21:09:38.271Z,male_vraiment_flat_74.wav,1,True,1543,54,féminin,0,0.000000,71.293232
03051969,50,1,2024-02-27T21:09:38.271Z,male_vraiment_flat_74.wav,1,True,1543,54,féminin,1,0.071043,32.860121
03051969,50,1,2024-02-27T21:09:38.271Z,male_vraiment_flat_74.wav,1,True,1543,54,féminin,2,0.142086,-85.825735
03051969,50,1,2024-02-27T21:09:38.271Z,male_vraiment_flat_74.wav,1,True,1543,54,féminin,3,0.213129,70.628085
03051969,50,1,2024-02-27T21:09:38.271Z,male_vraiment_flat_74.wav,1,True,1543,54,féminin,4,0.284172,126.928038
03051969,50,1,2024-02-27T21:09:38.271Z,male_vraiment_flat_74.wav,1,True,1543,54,féminin,5,0.355215,120.083362
03051969,50,1,2024-02-27T21:09:38.271Z,male_vraiment_flat_74.wav,1,True,1543,54,féminin,6,0.426259,92.661740
03051969,51,1,2024-02-27T21:09:38.271Z,male_vraiment_flat_116.wav,0,True,904,54,féminin,0,0.000000,-80.686828
03051969,51,1,2024-02-27T21:09:38.271Z,male_vraiment_flat_116.wav,0,True,904,54,féminin,1,0.071043,-31.189533
03051969,51,1,2024-02-27T21:09:38.271Z,male_vraiment_flat_116.wav,0,True,904,54,féminin,2,0.142086,-144.914474
03051969,51,1,2024-02-27T21:09:38.271Z,male_vraiment_flat_116.wav,0,True,904,54,féminin,3,0.213129,-49.653212
03051969,51,1,2024-02-27T21:09:38.271Z,male_vraiment_flat_116.wav,0,True,904,54,féminin,4,0.284172,-94.646547
03051969,51,1,2024-02-27T21:09:38.271Z,male_vraiment_flat_116.wav,0,True,904,54,féminin,5,0.355215,-38.055332
03051969,51,1,2024-02-27T21:09:38.271Z,male_vraiment_flat_116.wav,0,True,904,54,féminin,6,0.426259,-90.510946
03051969,51,1,2024-02-27T21:09:38.271Z,male_vraiment_flat_28.wav,1,False,904,54,féminin,0,0.000000,82.321174
03051969,51,1,2024-02-27T21:09:38.271Z,male_vraiment_flat_28.wav,1,False,904,54,féminin,1,0.071043,-139.171806
03051969,51,1,2024-02-27T21:09:38.271Z,male_vraiment_flat_28.wav,1,False,904,54,féminin,2,0.142086,-25.451767
03051969,51,1,2024-02-27T21:09:38.271Z,male_vraiment_flat_28.wav,1,False,904,54,féminin,3,0.213129,-113.179723
03051969,51,1,2024-02-27T21:09:38.271Z,male_vraiment_flat_28.wav,1,False,904,54,féminin,4,0.284172,-97.955774
03051969,51,1,2024-02-27T21:09:38.271Z,male_vraiment_flat_28.wav,1,False,904,54,féminin,5,0.355215,43.444463
03051969,51,1,2024-02-27T21:09:38.271Z,male_vraiment_flat_28.wav,1,False,904,54,féminin,6,0.426259,-9.291608
03051969,52,1,2024-02-27T21:09:38.271Z,male_vraiment_flat_95.wav,0,True,1281,54,féminin,0,0.000000,144.813706
03051969,52,1,2024-02-27T21:09:38.271Z,male_vraiment_flat_95.wav,0,True,1281,54,féminin,1,0.071043,36.420023
03051969,52,1,2024-02-27T21:09:38.271Z,male_vraiment_flat_95.wav,0,True,1281,54,féminin,2,0.142086,-15.581887
03051969,52,1,2024-02-27T21:09:38.271Z,male_vraiment_flat_95.wav,0,True,1281,54,féminin,3,0.213129,-108.080315
03051969,52,1,2024-02-27T21:09:38.271Z,male_vraiment_flat_95.wav,0,True,1281,54,féminin,4,0.284172,44.827040
03051969,52,1,2024-02-27T21:09:38.271Z,male_vraiment_flat_95.wav,0,True,1281,54,féminin,5,0.355215,-140.857646
03051969,52,1,2024-02-27T21:09:38.271Z,male_vraiment_flat_95.wav,0,True,1281,54,féminin,6,0.426259,-19.601185
03051969,52,1,2024-02-27T21:09:38.271Z,male_vraiment_flat_14.wav,1,False,1281,54,féminin,0,0.000000,-139.491371
03051969,52,1,2024-02-27T21:09:38.271Z,male_vraiment_flat_14.wav,1,False,1281,54,féminin,1,0.071043,-89.621492
03051969,52,1,2024-02-27T21:09:38.271Z,male_vraiment_flat_14.wav,1,False,1281,54,féminin,2,0.142086,-85.009614
03051969,52,1,2024-02-27T21:09:38.271Z,male_vraiment_flat_14.wav,1,False,1281,54,féminin,3,0.213129,-29.902058
03051969,52,1,2024-02-27T21:09:38.271Z,male_vraiment_flat_14.wav,1,False,1281,54,féminin,4,0.284172,-86.665261
03051969,52,1,2024-02-27T21:09:38.271Z,male_vraiment_flat_14.wav,1,False,1281,54,féminin,5,0.355215,27.459037
03051969,52,1,2024-02-27T21:09:38.271Z,male_vraiment_flat_14.wav,1,False,1281,54,féminin,6,0.426259,33.245669
03051969,53,1,2024-02-27T21:09:38.271Z,male_vraiment_flat_105.wav,0,False,2098,54,féminin,0,0.000000,125.556012
03051969,53,1,2024-02-27T21:09:38.271Z,male_vraiment_flat_105.wav,0,False,2098,54,féminin,1,0.071043,102.885047
03051969,53,1,2024-02-27T21:09:38.271Z,male_vraiment_flat_105.wav,0,False,2098,54,féminin,2,0.142086,-23.318884
03051969,53,1,2024-02-27T21:09:38.271Z,male_vraiment_flat_105.wav,0,False,2098,54,féminin,3,0.213129,96.270063
03051969,53,1,2024-02-27T21:09:38.271Z,male_vraiment_flat_105.wav,0,False,2098,54,féminin,4,0.284172,-32.661499
03051969,53,1,2024-02-27T21:09:38.271Z,male_vraiment_flat_105.wav,0,False,2098,54,féminin,5,0.355215,-7.829717
03051969,53,1,2024-02-27T21:09:38.271Z,male_vraiment_flat_105.wav,0,False,2098,54,féminin,6,0.426259,-13.047753
03051969,53,1,2024-02-27T21:09:38.271Z,male_vraiment_flat_140.wav,1,True,2098,54,féminin,0,0.000000,-149.304179
03051969,53,1,2024-02-27T21:09:38.271Z,male_vraiment_flat_140.wav,1,True,2098,54,féminin,1,0.071043,148.600586
03051969,53,1,2024-02-27T21:09:38.271Z,male_vraiment_flat_140.wav,1,True,2098,54,féminin,2,0.142086,-115.715849
03051969,53,1,2024-02-27T21:09:38.271Z,male_vraiment_flat_140.wav,1,True,2098,54,féminin,3,0.213129,139.265939
03051969,53,1,2024-02-27T21:09:38.271Z,male_vraiment_flat_140.wav,1,True,2098,54,féminin,4,0.284172,45.121427
03051969,53,1,2024-02-27T21:09:38.271Z,male_vraiment_flat_140.wav,1,True,2098,54,féminin,5,0.355215,-93.318951
03051969,53,1,2024-02-27T21:09:38.271Z,male_vraiment_flat_140.wav,1,True,2098,54,féminin,6,0.426259,-66.215565
03051969,54,1,2024-02-27T21:09:38.271Z,male_vraiment_flat_39.wav,0,True,824,54,féminin,0,0.000000,111.266402
03051969,54,1,2024-02-27T21:09:38.271Z,male_vraiment_flat_39.wav,0,True,824,54,féminin,1,0.071043,99.799676
03051969,54,1,2024-02-27T21:09:38.271Z,male_vraiment_flat_39.wav,0,True,824,54,féminin,2,0.142086,45.272629
03051969,54,1,2024-02-27T21:09:38.271Z,male_vraiment_flat_39.wav,0,True,824,54,féminin,3,0.213129,-145.406877
03051969,54,1,2024-02-27T21:09:38.271Z,male_vraiment_flat_39.wav,0,True,824,54,féminin,4,0.284172,46.363124
03051969,54,1,2024-02-27T21:09:38.271Z,male_vraiment_flat_39.wav,0,True,824,54,féminin,5,0.355215,90.908213
03051969,54,1,2024-02-27T21:09:38.271Z,male_vraiment_flat_39.wav,0,True,824,54,féminin,6,0.426259,-13.802222
03051969,54,1,2024-02-27T21:09:38.271Z,male_vraiment_flat_2.wav,1,False,824,54,féminin,0,0.000000,-26.280713
03051969,54,1,2024-02-27T21:09:38.271Z,male_vraiment_flat_2.wav,1,False,824,54,féminin,1,0.071043,83.932106
03051969,54,1,2024-02-27T21:09:38.271Z,male_vraiment_flat_2.wav,1,False,824,54,féminin,2,0.142086,59.369452
03051969,54,1,2024-02-27T21:09:38.271Z,male_vraiment_flat_2.wav,1,False,824,54,féminin,3,0.213129,8.881156
03051969,54,1,2024-02-27T21:09:38.271Z,male_vraiment_flat_2.wav,1,False,824,54,féminin,4,0.284172,3.498385
03051969,54,1,2024-02-27T21:09:38.271Z,male_vraiment_flat_2.wav,1,False,824,54,féminin,5,0.355215,-133.430007
03051969,54,1,2024-02-27T21:09:38.271Z,male_vraiment_flat_2.wav,1,False,824,54,féminin,6,0.426259,94.606197
03051969,55,1,2024-02-27T21:09:38.271Z,male_vraiment_flat_37.wav,0,True,1770,54,féminin,0,0.000000,-50.449081
03051969,55,1,2024-02-27T21:09:38.271Z,male_vraiment_flat_37.wav,0,True,1770,54,féminin,1,0.071043,28.423389
03051969,55,1,2024-02-27T21:09:38.271Z,male_vraiment_flat_37.wav,0,True,1770,54,féminin,2,0.142086,-105.344692
03051969,55,1,2024-02-27T21:09:38.271Z,male_vraiment_flat_37.wav,0,True,1770,54,féminin,3,0.213129,-99.811505
03051969,55,1,2024-02-27T21:09:38.271Z,male_vraiment_flat_37.wav,0,True,1770,54,féminin,4,0.284172,142.698740
03051969,55,1,2024-02-27T21:09:38.271Z,male_vraiment_flat_37.wav,0,True,1770,54,féminin,5,0.355215,-90.971946
03051969,55,1,2024-02-27T21:09:38.271Z,male_vraiment_flat_37.wav,0,True,1770,54,féminin,6,0.426259,19.642948
03051969,55,1,2024-02-27T21:09:38.271Z,male_vraiment_flat_31.wav,1,False,1770,54,féminin,0,0.000000,-118.123136
03051969,55,1,2024-02-27T21:09:38.271Z,male_vraiment_flat_31.wav,1,False,1770,54,féminin,1,0.071043,-54.324615
03051969,55,1,2024-02-27T21:09:38.271Z,male_vraiment_flat_31.wav,1,False,1770,54,féminin,2,0.142086,-56.463303
03051969,55,1,2024-02-27T21:09:38.271Z,male_vraiment_flat_31.wav,1,False,1770,54,féminin,3,0.213129,65.563679
03051969,55,1,2024-02-27T21:09:38.271Z,male_vraiment_flat_31.wav,1,False,1770,54,féminin,4,0.284172,91.438424
03051969,55,1,2024-02-27T21:09:38.271Z,male_vraiment_flat_31.wav,1,False,1770,54,féminin,5,0.355215,-2.661707
03051969,55,1,2024-02-27T21:09:38.271Z,male_vraiment_flat_31.wav,1,False,1770,54,féminin,6,0.426259,-48.318391
03051969,56,1,2024-02-27T21:09:38.271Z,male_vraiment_flat_130.wav,0,False,624,54,féminin,0,0.000000,-146.057737
03051969,56,1,2024-02-27T21:09:38.271Z,male_vraiment_flat_130.wav,0,False,624,54,féminin,1,0.071043,-49.781911
03051969,56,1,2024-02-27T21:09:38.271Z,male_vraiment_flat_130.wav,0,False,624,54,féminin,2,0.142086,74.893740
03051969,56,1,2024-02-27T21:09:38.271Z,male_vraiment_flat_130.wav,0,False,624,54,féminin,3,0.213129,-14.505163
03051969,56,1,2024-02-27T21:09:38.271Z,male_vraiment_flat_130.wav,0,False,624,54,féminin,4,0.284172,16.979815
03051969,56,1,2024-02-27T21:09:38.271Z,male_vraiment_flat_130.wav,0,False,624,54,féminin,5,0.355215,-66.512052
03051969,56,1,2024-02-27T21:09:38.271Z,male_vraiment_flat_130.wav,0,False,624,54,féminin,6,0.426259,-59.569067
03051969,56,1,2024-02-27T21:09:38.271Z,male_vraiment_flat_81.wav,1,True,624,54,féminin,0,0.000000,35.884214
03051969,56,1,2024-02-27T21:09:38.271Z,male_vraiment_flat_81.wav,1,True,624,54,féminin,1,0.071043,19.404831
03051969,56,1,2024-02-27T21:09:38.271Z,male_vraiment_flat_81.wav,1,True,624,54,féminin,2,0.142086,121.693264
03051969,56,1,2024-02-27T21:09:38.271Z,male_vraiment_flat_81.wav,1,True,624,54,féminin,3,0.213129,29.127429
03051969,56,1,2024-02-27T21:09:38.271Z,male_vraiment_flat_81.wav,1,True,624,54,féminin,4,0.284172,71.322417
03051969,56,1,2024-02-27T21:09:38.271Z,male_vraiment_flat_81.wav,1,True,624,54,féminin,5,0.355215,138.687922
03051969,56,1,2024-02-27T21:09:38.271Z,male_vraiment_flat_81.wav,1,True,624,54,féminin,6,0.426259,110.537915
03051969,57,1,2024-02-27T21:09:38.271Z,male_vraiment_flat_41.wav,0,True,941,54,féminin,0,0.000000,-40.071689
03051969,57,1,2024-02-27T21:09:38.271Z,male_vraiment_flat_41.wav,0,True,941,54,féminin,1,0.071043,-31.963638
03051969,57,1,2024-02-27T21:09:38.271Z,male_vraiment_flat_41.wav,0,True,941,54,féminin,2,0.142086,-69.463296
03051969,57,1,2024-02-27T21:09:38.271Z,male_vraiment_flat_41.wav,0,True,941,54,féminin,3,0.213129,-118.841278
03051969,57,1,2024-02-27T21:09:38.271Z,male_vraiment_flat_41.wav,0,True,941,54,féminin,4,0.284172,80.615651
03051969,57,1,2024-02-27T21:09:38.271Z,male_vraiment_flat_41.wav,0,True,941,54,féminin,5,0.355215,-132.443518
03051969,57,1,2024-02-27T21:09:38.271Z,male_vraiment_flat_41.wav,0,True,941,54,féminin,6,0.426259,21.803113
03051969,57,1,2024-02-27T21:09:38.271Z,male_vraiment_flat_38.wav,1,False,941,54,féminin,0,0.000000,144.136513
03051969,57,1,2024-02-27T21:09:38.271Z,male_vraiment_flat_38.wav,1,False,941,54,féminin,1,0.071043,-64.103106
03051969,57,1,2024-02-27T21:09:38.271Z,male_vraiment_flat_38.wav,1,False,941,54,féminin,2,0.142086,-98.673112
03051969,57,1,2024-02-27T21:09:38.271Z,male_vraiment_flat_38.wav,1,False,941,54,féminin,3,0.213129,-23.920097
03051969,57,1,2024-02-27T21:09:38.271Z,male_vraiment_flat_38.wav,1,False,941,54,féminin,4,0.284172,-49.884553
03051969,57,1,2024-02-27T21:09:38.271Z,male_vraiment_flat_38.wav,1,False,941,54,féminin,5,0.355215,-104.927811
03051969,57,1,2024-02-27T21:09:38.271Z,male_vraiment_flat_38.wav,1,False,941,54,féminin,6,0.426259,133.075001
03051969,58,1,2024-02-27T21:09:38.271Z,male_vraiment_flat_23.wav,0,False,1452,54,féminin,0,0.000000,27.345676
03051969,58,1,2024-02-27T21:09:38.271Z,male_vraiment_flat_23.wav,0,False,1452,54,féminin,1,0.071043,118.378449
03051969,58,1,2024-02-27T21:09:38.271Z,male_vraiment_flat_23.wav,0,False,1452,54,féminin,2,0.142086,35.467907
03051969,58,1,2024-02-27T21:09:38.271Z,male_vraiment_flat_23.wav,0,False,1452,54,féminin,3,0.213129,-5.979973
03051969,58,1,2024-02-27T21:09:38.271Z,male_vraiment_flat_23.wav,0,False,1452,54,féminin,4,0.284172,18.578162
03051969,58,1,2024-02-27T21:09:38.271Z,male_vraiment_flat_23.wav,0,False,1452,54,féminin,5,0.355215,-9.540782
03051969,58,1,2024-02-27T21:09:38.271Z,male_vraiment_flat_23.wav,0,False,1452,54,féminin,6,0.426259,-13.092534
03051969,58,1,2024-02-27T21:09:38.271Z,male_vraiment_flat_127.wav,1,True,1452,54,féminin,0,0.000000,143.598511
03051969,58,1,2024-02-27T21:09:38.271Z,male_vraiment_flat_127.wav,1,True,1452,54,féminin,1,0.071043,23.645136
03051969,58,1,2024-02-27T21:09:38.271Z,male_vraiment_flat_127.wav,1,True,1452,54,féminin,2,0.142086,-118.740497
03051969,58,1,2024-02-27T21:09:38.271Z,male_vraiment_flat_127.wav,1,True,1452,54,féminin,3,0.213129,-109.046436
03051969,58,1,2024-02-27T21:09:38.271Z,male_vraiment_flat_127.wav,1,True,1452,54,féminin,4,0.284172,66.022521
03051969,58,1,2024-02-27T21:09:38.271Z,male_vraiment_flat_127.wav,1,True,1452,54,féminin,5,0.355215,-13.059175
03051969,58,1,2024-02-27T21:09:38.271Z,male_vraiment_flat_127.wav,1,True,1452,54,féminin,6,0.426259,22.700660
03051969,59,1,2024-02-27T21:09:38.271Z,male_vraiment_flat_125.wav,0,True,833,54,féminin,0,0.000000,-40.862052
03051969,59,1,2024-02-27T21:09:38.271Z,male_vraiment_flat_125.wav,0,True,833,54,féminin,1,0.071043,93.193290
03051969,59,1,2024-02-27T21:09:38.271Z,male_vraiment_flat_125.wav,0,True,833,54,féminin,2,0.142086,71.046063
03051969,59,1,2024-02-27T21:09:38.271Z,male_vraiment_flat_125.wav,0,True,833,54,féminin,3,0.213129,-144.093496
03051969,59,1,2024-02-27T21:09:38.271Z,male_vraiment_flat_125.wav,0,True,833,54,féminin,4,0.284172,-1.218193
03051969,59,1,2024-02-27T21:09:38.271Z,male_vraiment_flat_125.wav,0,True,833,54,féminin,5,0.355215,94.223966
03051969,59,1,2024-02-27T21:09:38.271Z,male_vraiment_flat_125.wav,0,True,833,54,féminin,6,0.426259,-56.349938
03051969,59,1,2024-02-27T21:09:38.271Z,male_vraiment_flat_124.wav,1,False,833,54,féminin,0,0.000000,-7.963711
03051969,59,1,2024-02-27T21:09:38.271Z,male_vraiment_flat_124.wav,1,False,833,54,féminin,1,0.071043,-56.081883
03051969,59,1,2024-02-27T21:09:38.271Z,male_vraiment_flat_124.wav,1,False,833,54,féminin,2,0.142086,-78.115299
03051969,59,1,2024-02-27T21:09:38.271Z,male_vraiment_flat_124.wav,1,False,833,54,féminin,3,0.213129,-24.811935
03051969,59,1,2024-02-27T21:09:38.271Z,male_vraiment_flat_124.wav,1,False,833,54,féminin,4,0.284172,-9.003272
03051969,59,1,2024-02-27T21:09:38.271Z,male_vraiment_flat_124.wav,1,False,833,54,féminin,5,0.355215,13.712214
03051969,59,1,2024-02-27T21:09:38.271Z,male_vraiment_flat_124.wav,1,False,833,54,féminin,6,0.426259,140.048390
03051969,60,1,2024-02-27T21:09:38.271Z,male_vraiment_flat_91.wav,0,True,863,54,féminin,0,0.000000,58.982225
03051969,60,1,2024-02-27T21:09:38.271Z,male_vraiment_flat_91.wav,0,True,863,54,féminin,1,0.071043,126.482844
03051969,60,1,2024-02-27T21:09:38.271Z,male_vraiment_flat_91.wav,0,True,863,54,féminin,2,0.142086,-120.324305
03051969,60,1,2024-02-27T21:09:38.271Z,male_vraiment_flat_91.wav,0,True,863,54,féminin,3,0.213129,54.493295
03051969,60,1,2024-02-27T21:09:38.271Z,male_vraiment_flat_91.wav,0,True,863,54,féminin,4,0.284172,74.680181
03051969,60,1,2024-02-27T21:09:38.271Z,male_vraiment_flat_91.wav,0,True,863,54,féminin,5,0.355215,99.124880
03051969,60,1,2024-02-27T21:09:38.271Z,male_vraiment_flat_91.wav,0,True,863,54,féminin,6,0.426259,-32.505202
03051969,60,1,2024-02-27T21:09:38.271Z,male_vraiment_flat_77.wav,1,False,863,54,féminin,0,0.000000,-123.489900
03051969,60,1,2024-02-27T21:09:38.271Z,male_vraiment_flat_77.wav,1,False,863,54,féminin,1,0.071043,8.804262
03051969,60,1,2024-02-27T21:09:38.271Z,male_vraiment_flat_77.wav,1,False,863,54,féminin,2,0.142086,-15.205517
03051969,60,1,2024-02-27T21:09:38.271Z,male_vraiment_flat_77.wav,1,False,863,54,féminin,3,0.213129,7.550940
03051969,60,1,2024-02-27T21:09:38.271Z,male_vraiment_flat_77.wav,1,False,863,54,féminin,4,0.284172,97.551926
03051969,60,1,2024-02-27T21:09:38.271Z,male_vraiment_flat_77.wav,1,False,863,54,féminin,5,0.355215,56.352460
03051969,60,1,2024-02-27T21:09:38.271Z,male_vraiment_flat_77.wav,1,False,863,54,féminin,6,0.426259,-146.779345
03051969,61,1,2024-02-27T21:09:38.271Z,male_vraiment_flat_133.wav,0,False,710,54,féminin,0,0.000000,-33.116176
03051969,61,1,2024-02-27T21:09:38.271Z,male_vraiment_flat_133.wav,0,False,710,54,féminin,1,0.071043,-79.722902
03051969,61,1,2024-02-27T21:09:38.271Z,male_vraiment_flat_133.wav,0,False,710,54,féminin,2,0.142086,-0.174059
03051969,61,1,2024-02-27T21:09:38.271Z,male_vraiment_flat_133.wav,0,False,710,54,féminin,3,0.213129,82.274364
03051969,61,1,2024-02-27T21:09:38.271Z,male_vraiment_flat_133.wav,0,False,710,54,féminin,4,0.284172,-109.731995
03051969,61,1,2024-02-27T21:09:38.271Z,male_vraiment_flat_133.wav,0,False,710,54,féminin,5,0.355215,-72.489270
03051969,61,1,2024-02-27T21:09:38.271Z,male_vraiment_flat_133.wav,0,False,710,54,féminin,6,0.426259,11.511705
03051969,61,1,2024-02-27T21:09:38.271Z,male_vraiment_flat_147.wav,1,True,710,54,féminin,0,0.000000,-109.572708
03051969,61,1,2024-02-27T21:09:38.271Z,male_vraiment_flat_147.wav,1,True,710,54,féminin,1,0.071043,-50.943910
03051969,61,1,2024-02-27T21:09:38.271Z,male_vraiment_flat_147.wav,1,True,710,54,féminin,2,0.142086,145.950821
03051969,61,1,2024-02-27T21:09:38.271Z,male_vraiment_flat_147.wav,1,True,710,54,féminin,3,0.213129,141.813801
03051969,61,1,2024-02-27T21:09:38.271Z,male_vraiment_flat_147.wav,1,True,710,54,féminin,4,0.284172,53.597843
03051969,61,1,2024-02-27T21:09:38.271Z,male_vraiment_flat_147.wav,1,True,710,54,féminin,5,0.355215,-21.310214
03051969,61,1,2024-02-27T21:09:38.271Z,male_vraiment_flat_147.wav,1,True,710,54,féminin,6,0.426259,-94.477021
03051969,62,1,2024-02-27T21:09:38.271Z,male_vraiment_flat_139.wav,0,False,2038,54,féminin,0,0.000000,-131.535185
03051969,62,1,2024-02-27T21:09:38.271Z,male_vraiment_flat_139.wav,0,False,2038,54,féminin,1,0.071043,-10.702864
03051969,62,1,2024-02-27T21:09:38.271Z,male_vraiment_flat_139.wav,0,False,2038,54,féminin,2,0.142086,-8.370040
03051969,62,1,2024-02-27T21:09:38.271Z,male_vraiment_flat_139.wav,0,False,2038,54,féminin,3,0.213129,83.706839
03051969,62,1,2024-02-27T21:09:38.271Z,male_vraiment_flat_139.wav,0,False,2038,54,féminin,4,0.284172,-28.836111
03051969,62,1,2024-02-27T21:09:38.271Z,male_vraiment_flat_139.wav,0,False,2038,54,féminin,5,0.355215,8.499607
03051969,62,1,2024-02-27T21:09:38.271Z,male_vraiment_flat_139.wav,0,False,2038,54,féminin,6,0.426259,-85.859123
03051969,62,1,2024-02-27T21:09:38.271Z,male_vraiment_flat_40.wav,1,True,2038,54,féminin,0,0.000000,14.191871
03051969,62,1,2024-02-27T21:09:38.271Z,male_vraiment_flat_40.wav,1,True,2038,54,féminin,1,0.071043,-146.480257
03051969,62,1,2024-02-27T21:09:38.271Z,male_vraiment_flat_40.wav,1,True,2038,54,féminin,2,0.142086,53.736102
03051969,62,1,2024-02-27T21:09:38.271Z,male_vraiment_flat_40.wav,1,True,2038,54,féminin,3,0.213129,76.339598
03051969,62,1,2024-02-27T21:09:38.271Z,male_vraiment_flat_40.wav,1,True,2038,54,féminin,4,0.284172,128.682971
03051969,62,1,2024-02-27T21:09:38.271Z,male_vraiment_flat_40.wav,1,True,2038,54,féminin,5,0.355215,-84.474700
03051969,62,1,2024-02-27T21:09:38.271Z,male_vraiment_flat_40.wav,1,True,2038,54,féminin,6,0.426259,41.341932
03051969,63,1,2024-02-27T21:09:38.271Z,male_vraiment_flat_57.wav,0,False,692,54,féminin,0,0.000000,-38.971396
03051969,63,1,2024-02-27T21:09:38.271Z,male_vraiment_flat_57.wav,0,False,692,54,féminin,1,0.071043,127.210639
03051969,63,1,2024-02-27T21:09:38.271Z,male_vraiment_flat_57.wav,0,False,692,54,féminin,2,0.142086,-100.465383
03051969,63,1,2024-02-27T21:09:38.271Z,male_vraiment_flat_57.wav,0,False,692,54,féminin,3,0.213129,-139.526819
03051969,63,1,2024-02-27T21:09:38.271Z,male_vraiment_flat_57.wav,0,False,692,54,féminin,4,0.284172,-149.467980
03051969,63,1,2024-02-27T21:09:38.271Z,male_vraiment_flat_57.wav,0,False,692,54,féminin,5,0.355215,-50.432071
03051969,63,1,2024-02-27T21:09:38.271Z,male_vraiment_flat_57.wav,0,False,692,54,féminin,6,0.426259,15.305878
03051969,63,1,2024-02-27T21:09:38.271Z,male_vraiment_flat_43.wav,1,True,692,54,féminin,0,0.000000,49.290737
03051969,63,1,2024-02-27T21:09:38.271Z,male_vraiment_flat_43.wav,1,True,692,54,féminin,1,0.071043,5.814602
03051969,63,1,2024-02-27T21:09:38.271Z,male_vraiment_flat_43.wav,1,True,692,54,féminin,2,0.142086,-14.528706
03051969,63,1,2024-02-27T21:09:38.271Z,male_vraiment_flat_43.wav,1,True,692,54,féminin,3,0.213129,53.076799
03051969,63,1,2024-02-27T21:09:38.271Z,male_vraiment_flat_43.wav,1,True,692,54,féminin,4,0.284172,-30.290069
03051969,63,1,2024-02-27T21:09:38.271Z,male_vraiment_flat_43.wav,1,True,692,54,féminin,5,0.355215,134.741064
03051969,63,1,2024-02-27T21:09:38.271Z,male_vraiment_flat_43.wav,1,True,692,54,féminin,6,0.426259,54.746527
03051969,64,1,2024-02-27T21:09:38.271Z,male_vraiment_flat_24.wav,0,True,743,54,féminin,0,0.000000,-144.276814
03051969,64,1,2024-02-27T21:09:38.271Z,male_vraiment_flat_24.wav,0,True,743,54,féminin,1,0.071043,-59.436611
03051969,64,1,2024-02-27T21:09:38.271Z,male_vraiment_flat_24.wav,0,True,743,54,féminin,2,0.142086,45.565590
03051969,64,1,2024-02-27T21:09:38.271Z,male_vraiment_flat_24.wav,0,True,743,54,féminin,3,0.213129,19.626340
03051969,64,1,2024-02-27T21:09:38.271Z,male_vraiment_flat_24.wav,0,True,743,54,féminin,4,0.284172,-127.586662
03051969,64,1,2024-02-27T21:09:38.271Z,male_vraiment_flat_24.wav,0,True,743,54,féminin,5,0.355215,59.214853
03051969,64,1,2024-02-27T21:09:38.271Z,male_vraiment_flat_24.wav,0,True,743,54,féminin,6,0.426259,-70.996219
03051969,64,1,2024-02-27T21:09:38.271Z,male_vraiment_flat_9.wav,1,False,743,54,féminin,0,0.000000,85.332288
03051969,64,1,2024-02-27T21:09:38.271Z,male_vraiment_flat_9.wav,1,False,743,54,féminin,1,0.071043,-113.949520
03051969,64,1,2024-02-27T21:09:38.271Z,male_vraiment_flat_9.wav,1,False,743,54,féminin,2,0.142086,22.848070
03051969,64,1,2024-02-27T21:09:38.271Z,male_vraiment_flat_9.wav,1,False,743,54,féminin,3,0.213129,-135.528843
