subj,trial,block,date,stim,stim_order,response,rt,age,sex,param_index,segment_time,pitch
01111960,0,0,2024-03-04T12:39:01.724Z,male_vraiment_flat_197.wav,0,True,1369,63,MASCULIN,0,0.000000,7.012988
01111960,0,0,2024-03-04T12:39:01.724Z,male_vraiment_flat_197.wav,0,True,1369,63,MASCULIN,1,0.071043,64.551185
01111960,0,0,2024-03-04T12:39:01.724Z,male_vraiment_flat_197.wav,0,True,1369,63,MASCULIN,2,0.142086,-65.392523
01111960,0,0,2024-03-04T12:39:01.724Z,male_vraiment_flat_197.wav,0,True,1369,63,MASCULIN,3,0.213129,18.180118
01111960,0,0,2024-03-04T12:39:01.724Z,male_vraiment_flat_197.wav,0,True,1369,63,MASCULIN,4,0.284172,-30.775220
01111960,0,0,2024-03-04T12:39:01.724Z,male_vraiment_flat_197.wav,0,True,1369,63,MASCULIN,5,0.355215,95.802549
01111960,0,0,2024-03-04T12:39:01.724Z,male_vraiment_flat_197.wav,0,True,1369,63,MASCULIN,6,0.426259,-129.373786
01111960,0,0,2024-03-04T12:39:01.724Z,male_vraiment_flat_110.wav,1,False,1369,63,MASCULIN,0,0.000000,-78.850505
01111960,0,0,2024-03-04T12:39:01.724Z,male_vraiment_flat_110.wav,1,False,1369,63,MASCULIN,1,0.071043,-96.953533
01111960,0,0,2024-03-04T12:39:01.724Z,male_vraiment_flat_110.wav,1,False,1369,63,MASCULIN,2,0.142086,-38.365791
01111960,0,0,2024-03-04T12:39:01.724Z,male_vraiment_flat_110.wav,1,False,1369,63,MASCULIN,3,0.213129,77.506607
01111960,0,0,2024-03-04T12:39:01.724Z,male_vraiment_flat_110.wav,1,False,1369,63,MASCULIN,4,0.284172,-64.506238
01111960,0,0,2024-03-04T12:39:01.724Z,male_vraiment_flat_110.wav,1,False,1369,63,MASCULIN,5,0.355215,15.353748
01111960,0,0,2024-03-04T12:39:01.724Z,male_vraiment_flat_110.wav,1,False,1369,63,MASCULIN,6,0.426259,121.287299
01111960,1,0,2024-03-04T12:39:01.724Z,male_vraiment_flat_188.wav,0,True,2314,63,MASCULIN,0,0.000000,-11.484944
01111960,1,0,2024-03-04T12:39:01.724Z,male_vraiment_flat_188.wav,0,True,2314,63,MASCULIN,1,0.071043,-70.368872
01111960,1,0,2024-03-04T12:39:01.724Z,male_vraiment_flat_188.wav,0,True,2314,63,MASCULIN,2,0.142086,-35.616146
01111960,1,0,2024-03-04T12:39:01.724Z,male_vraiment_flat_188.wav,0,True,2314,63,MASCULIN,3,0.213129,0.109627
01111960,1,0,2024-03-04T12:39:01.724Z,male_vraiment_flat_188.wav,0,True,2314,63,MASCULIN,4,0.284172,2.553157
01111960,1,0,2024-03-04T12:39:01.724Z,male_vraiment_flat_188.wav,0,True,2314,63,MASCULIN,5,0.355215,-21.302793
01111960,1,0,2024-03-04T12:39:01.724Z,male_vraiment_flat_188.wav,0,True,2314,63,MASCULIN,6,0.426259,-116.307336
01111960,1,0,2024-03-04T12:39:01.724Z,male_vraiment_flat_89.wav,1,False,2314,63,MASCULIN,0,0.000000,109.966045
01111960,1,0,2024-03-04T12:39:01.724Z,male_vraiment_flat_89.wav,1,False,2314,63,MASCULIN,1,0.071043,3.952874
01111960,1,0,2024-03-04T12:39:01.724Z,male_vraiment_flat_89.wav,1,False,2314,63,MASCULIN,2,0.142086,14.687736
01111960,1,0,2024-03-04T12:39:01.724Z,male_vraiment_flat_89.wav,1,False,2314,63,MASCULIN,3,0.213129,-59.041416
01111960,1,0,2024-03-04T12:39:01.724Z,male_vraiment_flat_89.wav,1,False,2314,63,MASCULIN,4,0.284172,-42.151762
01111960,1,0,2024-03-04T12:39:01.724Z,male_vraiment_flat_89.wav,1,False,2314,63,MASCULIN,5,0.355215,-148.779325
01111960,1,0,2024-03-04T12:39:01.724Z,male_vraiment_flat_89.wav,1,False,2314,63,MASCULIN,6,0.426259,-61.315288
01111960,2,0,2024-03-04T12:39:01.724Z,male_vraiment_flat_156.wav,0,False,2334,63,MASCULIN,0,0.000000,62.995907
01111960,2,0,2024-03-04T12:39:01.724Z,male_vraiment_flat_156.wav,0,False,2334,63,MASCULIN,1,0.071043,-119.801161
01111960,2,0,2024-03-04T12:39:01.724Z,male_vraiment_flat_156.wav,0,False,2334,63,MASCULIN,2,0.142086,-125.261471
01111960,2,0,2024-03-04T12:39:01.724Z,male_vraiment_flat_156.wav,0,False,2334,63,MASCULIN,3,0.213129,110.918732
01111960,2,0,2024-03-04T12:39:01.724Z,male_vraiment_flat_156.wav,0,False,2334,63,MASCULIN,4,0.284172,-27.635219
01111960,2,0,2024-03-04T12:39:01.724Z,male_vraiment_flat_156.wav,0,False,2334,63,MASCULIN,5,0.355215,57.926930
01111960,2,0,2024-03-04T12:39:01.724Z,male_vraiment_flat_156.wav,0,False,2334,63,MASCULIN,6,0.426259,-85.703842
01111960,2,0,2024-03-04T12:39:01.724Z,male_vraiment_flat_135.wav,1,True,2334,63,MASCULIN,0,0.000000,69.664553
01111960,2,0,2024-03-04T12:39:01.724Z,male_vraiment_flat_135.wav,1,True,2334,63,MASCULIN,1,0.071043,-40.692966
01111960,2,0,2024-03-04T12:39:01.724Z,male_vraiment_flat_135.wav,1,True,2334,63,MASCULIN,2,0.142086,-94.283336
01111960,2,0,2024-03-04T12:39:01.724Z,male_vraiment_flat_135.wav,1,True,2334,63,MASCULIN,3,0.213129,7.777910
01111960,2,0,2024-03-04T12:39:01.724Z,male_vraiment_flat_135.wav,1,True,2334,63,MASCULIN,4,0.284172,26.713191
01111960,2,0,2024-03-04T12:39:01.724Z,male_vraiment_flat_135.wav,1,True,2334,63,MASCULIN,5,0.355215,137.292776
01111960,2,0,2024-03-04T12:39:01.724Z,male_vraiment_flat_135.wav,1,True,2334,63,MASCULIN,6,0.426259,-136.153804
01111960,3,0,2024-03-04T12:39:01.724Z,male_vraiment_flat_109.wav,0,False,1053,63,MASCULIN,0,0.000000,47.448278
01111960,3,0,2024-03-04T12:39:01.724Z,male_vraiment_flat_109.wav,0,False,1053,63,MASCULIN,1,0.071043,97.426800
01111960,3,0,2024-03-04T12:39:01.724Z,male_vraiment_flat_109.wav,0,False,1053,63,MASCULIN,2,0.142086,-100.706472
01111960,3,0,2024-03-04T12:39:01.724Z,male_vraiment_flat_109.wav,0,False,1053,63,MASCULIN,3,0.213129,-21.542212
01111960,3,0,2024-03-04T12:39:01.724Z,male_vraiment_flat_109.wav,0,False,1053,63,MASCULIN,4,0.284172,-35.096541
01111960,3,0,2024-03-04T12:39:01.724Z,male_vraiment_flat_109.wav,0,False,1053,63,MASCULIN,5,0.355215,33.270062
01111960,3,0,2024-03-04T12:39:01.724Z,male_vraiment_flat_109.wav,0,False,1053,63,MASCULIN,6,0.426259,35.804127
01111960,3,0,2024-03-04T12:39:01.724Z,male_vraiment_flat_107.wav,1,True,1053,63,MASCULIN,0,0.000000,147.824484
01111960,3,0,2024-03-04T12:39:01.724Z,male_vraiment_flat_107.wav,1,True,1053,63,MASCULIN,1,0.071043,-35.753560
01111960,3,0,2024-03-04T12:39:01.724Z,male_vraiment_flat_107.wav,1,True,1053,63,MASCULIN,2,0.142086,-17.671801
01111960,3,0,2024-03-04T12:39:01.724Z,male_vraiment_flat_107.wav,1,True,1053,63,MASCULIN,3,0.213129,145.037411
01111960,3,0,2024-03-04T12:39:01.724Z,male_vraiment_flat_107.wav,1,True,1053,63,MASCULIN,4,0.284172,17.430899
01111960,3,0,2024-03-04T12:39:01.724Z,male_vraiment_flat_107.wav,1,True,1053,63,MASCULIN,5,0.355215,-34.827913
01111960,3,0,2024-03-04T12:39:01.724Z,male_vraiment_flat_107.wav,1,True,1053,63,MASCULIN,6,0.426259,-148.430397
01111960,4,0,2024-03-04T12:39:01.724Z,male_vraiment_flat_196.wav,0,True,1771,63,MASCULIN,0,0.000000,-42.342747
01111960,4,0,2024-03-04T12:39:01.724Z,male_vraiment_flat_196.wav,0,True,1771,63,MASCULIN,1,0.071043,-81.868734
01111960,4,0,2024-03-04T12:39:01.724Z,male_vraiment_flat_196.wav,0,True,1771,63,MASCULIN,2,0.142086,-18.906552
01111960,4,0,2024-03-04T12:39:01.724Z,male_vraiment_flat_196.wav,0,True,1771,63,MASCULIN,3,0.213129,-18.852092
01111960,4,0,2024-03-04T12:39:01.724Z,male_vraiment_flat_196.wav,0,True,1771,63,MASCULIN,4,0.284172,52.116670
01111960,4,0,2024-03-04T12:39:01.724Z,male_vraiment_flat_196.wav,0,True,1771,63,MASCULIN,5,0.355215,90.577409
01111960,4,0,2024-03-04T12:39:01.724Z,male_vraiment_flat_196.wav,0,True,1771,63,MASCULIN,6,0.426259,29.772760
01111960,4,0,2024-03-04T12:39:01.724Z,male_vraiment_flat_116.wav,1,False,1771,63,MASCULIN,0,0.000000,-80.686828
01111960,4,0,2024-03-04T12:39:01.724Z,male_vraiment_flat_116.wav,1,False,1771,63,MASCULIN,1,0.071043,-31.189533
01111960,4,0,2024-03-04T12:39:01.724Z,male_vraiment_flat_116.wav,1,False,1771,63,MASCULIN,2,0.142086,-144.914474
01111960,4,0,2024-03-04T12:39:01.724Z,male_vraiment_flat_116.wav,1,False,1771,63,MASCULIN,3,0.213129,-49.653212
01111960,4,0,2024-03-04T12:39:01.724Z,male_vraiment_flat_116.wav,1,False,1771,63,MASCULIN,4,0.284172,-94.646547
01111960,4,0,2024-03-04T12:39:01.724Z,male_vraiment_flat_116.wav,1,False,1771,63,MASCULIN,5,0.355215,-38.055332
01111960,4,0,2024-03-04T12:39:01.724Z,male_vraiment_flat_116.wav,1,False,1771,63,MASCULIN,6,0.426259,-90.510946
01111960,5,0,2024-03-04T12:39:01.724Z,male_vraiment_flat_193.wav,0,False,3273,63,MASCULIN,0,0.000000,-104.498046
01111960,5,0,2024-03-04T12:39:01.724Z,male_vraiment_flat_193.wav,0,False,3273,63,MASCULIN,1,0.071043,27.454942
01111960,5,0,2024-03-04T12:39:01.724Z,male_vraiment_flat_193.wav,0,False,3273,63,MASCULIN,2,0.142086,-81.084240
01111960,5,0,2024-03-04T12:39:01.724Z,male_vraiment_flat_193.wav,0,False,3273,63,MASCULIN,3,0.213129,-66.105426
01111960,5,0,2024-03-04T12:39:01.724Z,male_vraiment_flat_193.wav,0,False,3273,63,MASCULIN,4,0.284172,-18.843418
01111960,5,0,2024-03-04T12:39:01.724Z,male_vraiment_flat_193.wav,0,False,3273,63,MASCULIN,5,0.355215,59.447118
01111960,5,0,2024-03-04T12:39:01.724Z,male_vraiment_flat_193.wav,0,False,3273,63,MASCULIN,6,0.426259,86.357299
01111960,5,0,2024-03-04T12:39:01.724Z,male_vraiment_flat_91.wav,1,True,3273,63,MASCULIN,0,0.000000,58.982225
01111960,5,0,2024-03-04T12:39:01.724Z,male_vraiment_flat_91.wav,1,True,3273,63,MASCULIN,1,0.071043,126.482844
01111960,5,0,2024-03-04T12:39:01.724Z,male_vraiment_flat_91.wav,1,True,3273,63,MASCULIN,2,0.142086,-120.324305
01111960,5,0,2024-03-04T12:39:01.724Z,male_vraiment_flat_91.wav,1,True,3273,63,MASCULIN,3,0.213129,54.493295
01111960,5,0,2024-03-04T12:39:01.724Z,male_vraiment_flat_91.wav,1,True,3273,63,MASCULIN,4,0.284172,74.680181
01111960,5,0,2024-03-04T12:39:01.724Z,male_vraiment_flat_91.wav,1,True,3273,63,MASCULIN,5,0.355215,99.124880
01111960,5,0,2024-03-04T12:39:01.724Z,male_vraiment_flat_91.wav,1,True,3273,63,MASCULIN,6,0.426259,-32.505202
01111960,6,0,2024-03-04T12:39:01.724Z,male_vraiment_flat_133.wav,0,False,1197,63,MASCULIN,0,0.000000,-33.116176
01111960,6,0,2024-03-04T12:39:01.724Z,male_vraiment_flat_133.wav,0,False,1197,63,MASCULIN,1,0.071043,-79.722902
01111960,6,0,2024-03-04T12:39:01.724Z,male_vraiment_flat_133.wav,0,False,1197,63,MASCULIN,2,0.142086,-0.174059
01111960,6,0,2024-03-04T12:39:01.724Z,male_vraiment_flat_133.wav,0,False,1197,63,MASCULIN,3,0.213129,82.274364
01111960,6,0,2024-03-04T12:39:01.724Z,male_vraiment_flat_133.wav,0,False,1197,63,MASCULIN,4,0.284172,-109.731995
01111960,6,0,2024-03-04T12:39:01.724Z,male_vraiment_flat_133.wav,0,False,1197,63,MASCULIN,5,0.355215,-72.489270
01111960,6,0,2024-03-04T12:39:01.724Z,male_vraiment_flat_133.wav,0,False,1197,63,MASCULIN,6,0.426259,11.511705
01111960,6,0,2024-03-04T12:39:01.724Z,male_vraiment_flat_28.wav,1,True,1197,63,MASCULIN,0,0.000000,82.321174
01111960,6,0,2024-03-04T12:39:01.724Z,male_vraiment_flat_28.wav,1,True,1197,63,MASCULIN,1,0.071043,-139.171806
01111960,6,0,2024-03-04T12:39:01.724Z,male_vraiment_flat_28.wav,1,True,1197,63,MASCULIN,2,0.142086,-25.451767
01111960,6,0,2024-03-04T12:39:01.724Z,male_vraiment_flat_28.wav,1,True,1197,63,MASCULIN,3,0.213129,-113.179723
01111960,6,0,2024-03-04T12:39:01.724Z,male_vraiment_flat_28.wav,1,True,1197,63,MASCULIN,4,0.284172,-97.955774
01111960,6,0,2024-03-04T12:39:01.724Z,male_vraiment_flat_28.wav,1,True,1197,63,MASCULIN,5,0.355215,43.444463
01111960,6,0,2024-03-04T12:39:01.724Z,male_vraiment_flat_28.wav,1,True,1197,63,MASCULIN,6,0.426259,-9.291608
01111960,7,0,2024-03-04T12:39:01.724Z,male_vraiment_flat_179.wav,0,True,1583,63,MASCULIN,0,0.000000,31.793897
01111960,7,0,2024-03-04T12:39:01.724Z,male_vraiment_flat_179.wav,0,True,1583,63,MASCULIN,1,0.071043,-7.766660
01111960,7,0,2024-03-04T12:39:01.724Z,male_vraiment_flat_179.wav,0,True,1583,63,MASCULIN,2,0.142086,14.202215
01111960,7,0,2024-03-04T12:39:01.724Z,male_vraiment_flat_179.wav,0,True,1583,63,MASCULIN,3,0.213129,-28.726082
01111960,7,0,2024-03-04T12:39:01.724Z,male_vraiment_flat_179.wav,0,True,1583,63,MASCULIN,4,0.284172,-38.298342
01111960,7,0,2024-03-04T12:39:01.724Z,male_vraiment_flat_179.wav,0,True,1583,63,MASCULIN,5,0.355215,97.025797
01111960,7,0,2024-03-04T12:39:01.724Z,male_vraiment_flat_179.wav,0,True,1583,63,MASCULIN,6,0.426259,-148.112175
01111960,7,0,2024-03-04T12:39:01.724Z,male_vraiment_flat_143.wav,1,False,1583,63,MASCULIN,0,0.000000,-11.669164
01111960,7,0,2024-03-04T12:39:01.724Z,male_vraiment_flat_143.wav,1,False,1583,63,MASCULIN,1,0.071043,-18.385217
01111960,7,0,2024-03-04T12:39:01.724Z,male_vraiment_flat_143.wav,1,False,1583,63,MASCULIN,2,0.142086,88.645793
01111960,7,0,2024-03-04T12:39:01.724Z,male_vraiment_flat_143.wav,1,False,1583,63,MASCULIN,3,0.213129,-2.720338
01111960,7,0,2024-03-04T12:39:01.724Z,male_vraiment_flat_143.wav,1,False,1583,63,MASCULIN,4,0.284172,-37.224869
01111960,7,0,2024-03-04T12:39:01.724Z,male_vraiment_flat_143.wav,1,False,1583,63,MASCULIN,5,0.355215,-143.685714
01111960,7,0,2024-03-04T12:39:01.724Z,male_vraiment_flat_143.wav,1,False,1583,63,MASCULIN,6,0.426259,-125.491494
01111960,8,0,2024-03-04T12:39:01.724Z,male_vraiment_flat_142.wav,0,True,892,63,MASCULIN,0,0.000000,129.881009
01111960,8,0,2024-03-04T12:39:01.724Z,male_vraiment_flat_142.wav,0,True,892,63,MASCULIN,1,0.071043,116.596688
01111960,8,0,2024-03-04T12:39:01.724Z,male_vraiment_flat_142.wav,0,True,892,63,MASCULIN,2,0.142086,48.203333
01111960,8,0,2024-03-04T12:39:01.724Z,male_vraiment_flat_142.wav,0,True,892,63,MASCULIN,3,0.213129,100.883154
01111960,8,0,2024-03-04T12:39:01.724Z,male_vraiment_flat_142.wav,0,True,892,63,MASCULIN,4,0.284172,-39.625904
01111960,8,0,2024-03-04T12:39:01.724Z,male_vraiment_flat_142.wav,0,True,892,63,MASCULIN,5,0.355215,-141.802649
01111960,8,0,2024-03-04T12:39:01.724Z,male_vraiment_flat_142.wav,0,True,892,63,MASCULIN,6,0.426259,58.691582
01111960,8,0,2024-03-04T12:39:01.724Z,male_vraiment_flat_66.wav,1,False,892,63,MASCULIN,0,0.000000,96.429433
01111960,8,0,2024-03-04T12:39:01.724Z,male_vraiment_flat_66.wav,1,False,892,63,MASCULIN,1,0.071043,13.373052
01111960,8,0,2024-03-04T12:39:01.724Z,male_vraiment_flat_66.wav,1,False,892,63,MASCULIN,2,0.142086,112.602816
01111960,8,0,2024-03-04T12:39:01.724Z,male_vraiment_flat_66.wav,1,False,892,63,MASCULIN,3,0.213129,110.292573
01111960,8,0,2024-03-04T12:39:01.724Z,male_vraiment_flat_66.wav,1,False,892,63,MASCULIN,4,0.284172,-89.729138
01111960,8,0,2024-03-04T12:39:01.724Z,male_vraiment_flat_66.wav,1,False,892,63,MASCULIN,5,0.355215,-67.456514
01111960,8,0,2024-03-04T12:39:01.724Z,male_vraiment_flat_66.wav,1,False,892,63,MASCULIN,6,0.426259,79.997172
01111960,9,0,2024-03-04T12:39:01.724Z,male_vraiment_flat_113.wav,0,True,702,63,MASCULIN,0,0.000000,52.176539
01111960,9,0,2024-03-04T12:39:01.724Z,male_vraiment_flat_113.wav,0,True,702,63,MASCULIN,1,0.071043,52.904766
01111960,9,0,2024-03-04T12:39:01.724Z,male_vraiment_flat_113.wav,0,True,702,63,MASCULIN,2,0.142086,-138.473207
01111960,9,0,2024-03-04T12:39:01.724Z,male_vraiment_flat_113.wav,0,True,702,63,MASCULIN,3,0.213129,-65.217652
01111960,9,0,2024-03-04T12:39:01.724Z,male_vraiment_flat_113.wav,0,True,702,63,MASCULIN,4,0.284172,3.928053
01111960,9,0,2024-03-04T12:39:01.724Z,male_vraiment_flat_113.wav,0,True,702,63,MASCULIN,5,0.355215,69.229623
01111960,9,0,2024-03-04T12:39:01.724Z,male_vraiment_flat_113.wav,0,True,702,63,MASCULIN,6,0.426259,-85.157528
01111960,9,0,2024-03-04T12:39:01.724Z,male_vraiment_flat_47.wav,1,False,702,63,MASCULIN,0,0.000000,11.243959
01111960,9,0,2024-03-04T12:39:01.724Z,male_vraiment_flat_47.wav,1,False,702,63,MASCULIN,1,0.071043,-131.885563
01111960,9,0,2024-03-04T12:39:01.724Z,male_vraiment_flat_47.wav,1,False,702,63,MASCULIN,2,0.142086,22.720944
01111960,9,0,2024-03-04T12:39:01.724Z,male_vraiment_flat_47.wav,1,False,702,63,MASCULIN,3,0.213129,-98.981706
01111960,9,0,2024-03-04T12:39:01.724Z,male_vraiment_flat_47.wav,1,False,702,63,MASCULIN,4,0.284172,-117.392555
01111960,9,0,2024-03-04T12:39:01.724Z,male_vraiment_flat_47.wav,1,False,702,63,MASCULIN,5,0.355215,-7.362816
01111960,9,0,2024-03-04T12:39:01.724Z,male_vraiment_flat_47.wav,1,False,702,63,MASCULIN,6,0.426259,149.963589
01111960,10,0,2024-03-04T12:39:01.724Z,male_vraiment_flat_35.wav,0,True,1029,63,MASCULIN,0,0.000000,-80.907759
01111960,10,0,2024-03-04T12:39:01.724Z,male_vraiment_flat_35.wav,0,True,1029,63,MASCULIN,1,0.071043,-44.446048
01111960,10,0,2024-03-04T12:39:01.724Z,male_vraiment_flat_35.wav,0,True,1029,63,MASCULIN,2,0.142086,-51.579277
01111960,10,0,2024-03-04T12:39:01.724Z,male_vraiment_flat_35.wav,0,True,1029,63,MASCULIN,3,0.213129,-66.764099
01111960,10,0,2024-03-04T12:39:01.724Z,male_vraiment_flat_35.wav,0,True,1029,63,MASCULIN,4,0.284172,-35.478686
01111960,10,0,2024-03-04T12:39:01.724Z,male_vraiment_flat_35.wav,0,True,1029,63,MASCULIN,5,0.355215,-86.823570
01111960,10,0,2024-03-04T12:39:01.724Z,male_vraiment_flat_35.wav,0,True,1029,63,MASCULIN,6,0.426259,26.550026
01111960,10,0,2024-03-04T12:39:01.724Z,male_vraiment_flat_64.wav,1,False,1029,63,MASCULIN,0,0.000000,113.461811
01111960,10,0,2024-03-04T12:39:01.724Z,male_vraiment_flat_64.wav,1,False,1029,63,MASCULIN,1,0.071043,60.375974
01111960,10,0,2024-03-04T12:39:01.724Z,male_vraiment_flat_64.wav,1,False,1029,63,MASCULIN,2,0.142086,-103.339599
01111960,10,0,2024-03-04T12:39:01.724Z,male_vraiment_flat_64.wav,1,False,1029,63,MASCULIN,3,0.213129,103.179307
01111960,10,0,2024-03-04T12:39:01.724Z,male_vraiment_flat_64.wav,1,False,1029,63,MASCULIN,4,0.284172,81.101135
01111960,10,0,2024-03-04T12:39:01.724Z,male_vraiment_flat_64.wav,1,False,1029,63,MASCULIN,5,0.355215,-3.861127
01111960,10,0,2024-03-04T12:39:01.724Z,male_vraiment_flat_64.wav,1,False,1029,63,MASCULIN,6,0.426259,-77.158959
01111960,11,0,2024-03-04T12:39:01.724Z,male_vraiment_flat_164.wav,0,True,1462,63,MASCULIN,0,0.000000,-99.029475
01111960,11,0,2024-03-04T12:39:01.724Z,male_vraiment_flat_164.wav,0,True,1462,63,MASCULIN,1,0.071043,-83.219544
01111960,11,0,2024-03-04T12:39:01.724Z,male_vraiment_flat_164.wav,0,True,1462,63,MASCULIN,2,0.142086,-76.160804
01111960,11,0,2024-03-04T12:39:01.724Z,male_vraiment_flat_164.wav,0,True,1462,63,MASCULIN,3,0.213129,-60.412119
01111960,11,0,2024-03-04T12:39:01.724Z,male_vraiment_flat_164.wav,0,True,1462,63,MASCULIN,4,0.284172,-135.438027
01111960,11,0,2024-03-04T12:39:01.724Z,male_vraiment_flat_164.wav,0,True,1462,63,MASCULIN,5,0.355215,-30.546522
01111960,11,0,2024-03-04T12:39:01.724Z,male_vraiment_flat_164.wav,0,True,1462,63,MASCULIN,6,0.426259,-142.367635
01111960,11,0,2024-03-04T12:39:01.724Z,male_vraiment_flat_166.wav,1,False,1462,63,MASCULIN,0,0.000000,40.484109
01111960,11,0,2024-03-04T12:39:01.724Z,male_vraiment_flat_166.wav,1,False,1462,63,MASCULIN,1,0.071043,-10.250913
01111960,11,0,2024-03-04T12:39:01.724Z,male_vraiment_flat_166.wav,1,False,1462,63,MASCULIN,2,0.142086,-109.726305
01111960,11,0,2024-03-04T12:39:01.724Z,male_vraiment_flat_166.wav,1,False,1462,63,MASCULIN,3,0.213129,-32.205058
01111960,11,0,2024-03-04T12:39:01.724Z,male_vraiment_flat_166.wav,1,False,1462,63,MASCULIN,4,0.284172,141.461363
01111960,11,0,2024-03-04T12:39:01.724Z,male_vraiment_flat_166.wav,1,False,1462,63,MASCULIN,5,0.355215,65.199031
01111960,11,0,2024-03-04T12:39:01.724Z,male_vraiment_flat_166.wav,1,False,1462,63,MASCULIN,6,0.426259,-54.014549
01111960,12,0,2024-03-04T12:39:01.724Z,male_vraiment_flat_74.wav,0,True,971,63,MASCULIN,0,0.000000,71.293232
01111960,12,0,2024-03-04T12:39:01.724Z,male_vraiment_flat_74.wav,0,True,971,63,MASCULIN,1,0.071043,32.860121
01111960,12,0,2024-03-04T12:39:01.724Z,male_vraiment_flat_74.wav,0,True,971,63,MASCULIN,2,0.142086,-85.825735
01111960,12,0,2024-03-04T12:39:01.724Z,male_vraiment_flat_74.wav,0,True,971,63,MASCULIN,3,0.213129,70.628085
01111960,12,0,2024-03-04T12:39:01.724Z,male_vraiment_flat_74.wav,0,True,971,63,MASCULIN,4,0.284172,126.928038
01111960,12,0,2024-03-04T12:39:01.724Z,male_vraiment_flat_74.wav,0,True,971,63,MASCULIN,5,0.355215,120.083362
01111960,12,0,2024-03-04T12:39:01.724Z,male_vraiment_flat_74.wav,0,True,971,63,MASCULIN,6,0.426259,92.661740
01111960,12,0,2024-03-04T12:39:01.724Z,male_vraiment_flat_30.wav,1,False,971,63,MASCULIN,0,0.000000,32.600333
01111960,12,0,2024-03-04T12:39:01.724Z,male_vraiment_flat_30.wav,1,False,971,63,MASCULIN,1,0.071043,42.125884
01111960,12,0,2024-03-04T12:39:01.724Z,male_vraiment_flat_30.wav,1,False,971,63,MASCULIN,2,0.142086,124.172285
01111960,12,0,2024-03-04T12:39:01.724Z,male_vraiment_flat_30.wav,1,False,971,63,MASCULIN,3,0.213129,52.679052
01111960,12,0,2024-03-04T12:39:01.724Z,male_vraiment_flat_30.wav,1,False,971,63,MASCULIN,4,0.284172,-111.889461
01111960,12,0,2024-03-04T12:39:01.724Z,male_vraiment_flat_30.wav,1,False,971,63,MASCULIN,5,0.355215,64.478579
01111960,12,0,2024-03-04T12:39:01.724Z,male_vraiment_flat_30.wav,1,False,971,63,MASCULIN,6,0.426259,22.023880
01111960,13,0,2024-03-04T12:39:01.724Z,male_vraiment_flat_184.wav,0,True,640,63,MASCULIN,0,0.000000,86.245131
01111960,13,0,2024-03-04T12:39:01.724Z,male_vraiment_flat_184.wav,0,True,640,63,MASCULIN,1,0.071043,106.604050
01111960,13,0,2024-03-04T12:39:01.724Z,male_vraiment_flat_184.wav,0,True,640,63,MASCULIN,2,0.142086,-48.425154
01111960,13,0,2024-03-04T12:39:01.724Z,male_vraiment_flat_184.wav,0,True,640,63,MASCULIN,3,0.213129,48.927001
01111960,13,0,2024-03-04T12:39:01.724Z,male_vraiment_flat_184.wav,0,True,640,63,MASCULIN,4,0.284172,-82.972934
01111960,13,0,2024-03-04T12:39:01.724Z,male_vraiment_flat_184.wav,0,True,640,63,MASCULIN,5,0.355215,73.552976
01111960,13,0,2024-03-04T12:39:01.724Z,male_vraiment_flat_184.wav,0,True,640,63,MASCULIN,6,0.426259,-131.359115
01111960,13,0,2024-03-04T12:39:01.724Z,male_vraiment_flat_119.wav,1,False,640,63,MASCULIN,0,0.000000,-44.932226
01111960,13,0,2024-03-04T12:39:01.724Z,male_vraiment_flat_119.wav,1,False,640,63,MASCULIN,1,0.071043,12.460519
01111960,13,0,2024-03-04T12:39:01.724Z,male_vraiment_flat_119.wav,1,False,640,63,MASCULIN,2,0.142086,58.855712
01111960,13,0,2024-03-04T12:39:01.724Z,male_vraiment_flat_119.wav,1,False,640,63,MASCULIN,3,0.213129,26.967779
01111960,13,0,2024-03-04T12:39:01.724Z,male_vraiment_flat_119.wav,1,False,640,63,MASCULIN,4,0.284172,139.969902
01111960,13,0,2024-03-04T12:39:01.724Z,male_vraiment_flat_119.wav,1,False,640,63,MASCULIN,5,0.355215,49.325586
01111960,13,0,2024-03-04T12:39:01.724Z,male_vraiment_flat_119.wav,1,False,640,63,MASCULIN,6,0.426259,89.552624
01111960,14,0,2024-03-04T12:39:01.724Z,male_vraiment_flat_61.wav,0,True,736,63,MASCULIN,0,0.000000,-131.156457
01111960,14,0,2024-03-04T12:39:01.724Z,male_vraiment_flat_61.wav,0,True,736,63,MASCULIN,1,0.071043,-97.865916
01111960,14,0,2024-03-04T12:39:01.724Z,male_vraiment_flat_61.wav,0,True,736,63,MASCULIN,2,0.142086,61.528867
01111960,14,0,2024-03-04T12:39:01.724Z,male_vraiment_flat_61.wav,0,True,736,63,MASCULIN,3,0.213129,-10.532302
01111960,14,0,2024-03-04T12:39:01.724Z,male_vraiment_flat_61.wav,0,True,736,63,MASCULIN,4,0.284172,-59.471070
01111960,14,0,2024-03-04T12:39:01.724Z,male_vraiment_flat_61.wav,0,True,736,63,MASCULIN,5,0.355215,77.665776
01111960,14,0,2024-03-04T12:39:01.724Z,male_vraiment_flat_61.wav,0,True,736,63,MASCULIN,6,0.426259,-95.375701
01111960,14,0,2024-03-04T12:39:01.724Z,male_vraiment_flat_115.wav,1,False,736,63,MASCULIN,0,0.000000,-100.568741
01111960,14,0,2024-03-04T12:39:01.724Z,male_vraiment_flat_115.wav,1,False,736,63,MASCULIN,1,0.071043,57.843647
01111960,14,0,2024-03-04T12:39:01.724Z,male_vraiment_flat_115.wav,1,False,736,63,MASCULIN,2,0.142086,-30.946862
01111960,14,0,2024-03-04T12:39:01.724Z,male_vraiment_flat_115.wav,1,False,736,63,MASCULIN,3,0.213129,-117.622484
01111960,14,0,2024-03-04T12:39:01.724Z,male_vraiment_flat_115.wav,1,False,736,63,MASCULIN,4,0.284172,12.634833
01111960,14,0,2024-03-04T12:39:01.724Z,male_vraiment_flat_115.wav,1,False,736,63,MASCULIN,5,0.355215,-81.533692
01111960,14,0,2024-03-04T12:39:01.724Z,male_vraiment_flat_115.wav,1,False,736,63,MASCULIN,6,0.426259,-72.293995
01111960,15,0,2024-03-04T12:39:01.724Z,male_vraiment_flat_146.wav,0,True,681,63,MASCULIN,0,0.000000,92.610651
01111960,15,0,2024-03-04T12:39:01.724Z,male_vraiment_flat_146.wav,0,True,681,63,MASCULIN,1,0.071043,40.250954
01111960,15,0,2024-03-04T12:39:01.724Z,male_vraiment_flat_146.wav,0,True,681,63,MASCULIN,2,0.142086,99.988333
01111960,15,0,2024-03-04T12:39:01.724Z,male_vraiment_flat_146.wav,0,True,681,63,MASCULIN,3,0.213129,115.543405
01111960,15,0,2024-03-04T12:39:01.724Z,male_vraiment_flat_146.wav,0,True,681,63,MASCULIN,4,0.284172,-3.607960
01111960,15,0,2024-03-04T12:39:01.724Z,male_vraiment_flat_146.wav,0,True,681,63,MASCULIN,5,0.355215,-91.494225
01111960,15,0,2024-03-04T12:39:01.724Z,male_vraiment_flat_146.wav,0,True,681,63,MASCULIN,6,0.426259,-109.708123
01111960,15,0,2024-03-04T12:39:01.724Z,male_vraiment_flat_78.wav,1,False,681,63,MASCULIN,0,0.000000,80.055785
01111960,15,0,2024-03-04T12:39:01.724Z,male_vraiment_flat_78.wav,1,False,681,63,MASCULIN,1,0.071043,117.831593
01111960,15,0,2024-03-04T12:39:01.724Z,male_vraiment_flat_78.wav,1,False,681,63,MASCULIN,2,0.142086,-32.666549
01111960,15,0,2024-03-04T12:39:01.724Z,male_vraiment_flat_78.wav,1,False,681,63,MASCULIN,3,0.213129,67.905321
01111960,15,0,2024-03-04T12:39:01.724Z,male_vraiment_flat_78.wav,1,False,681,63,MASCULIN,4,0.284172,84.716683
01111960,15,0,2024-03-04T12:39:01.724Z,male_vraiment_flat_78.wav,1,False,681,63,MASCULIN,5,0.355215,30.832945
01111960,15,0,2024-03-04T12:39:01.724Z,male_vraiment_flat_78.wav,1,False,681,63,MASCULIN,6,0.426259,87.837740
01111960,16,0,2024-03-04T12:39:01.724Z,male_vraiment_flat_95.wav,0,False,2086,63,MASCULIN,0,0.000000,144.813706
01111960,16,0,2024-03-04T12:39:01.724Z,male_vraiment_flat_95.wav,0,False,2086,63,MASCULIN,1,0.071043,36.420023
01111960,16,0,2024-03-04T12:39:01.724Z,male_vraiment_flat_95.wav,0,False,2086,63,MASCULIN,2,0.142086,-15.581887
01111960,16,0,2024-03-04T12:39:01.724Z,male_vraiment_flat_95.wav,0,False,2086,63,MASCULIN,3,0.213129,-108.080315
01111960,16,0,2024-03-04T12:39:01.724Z,male_vraiment_flat_95.wav,0,False,2086,63,MASCULIN,4,0.284172,44.827040
01111960,16,0,2024-03-04T12:39:01.724Z,male_vraiment_flat_95.wav,0,False,2086,63,MASCULIN,5,0.355215,-140.857646
01111960,16,0,2024-03-04T12:39:01.724Z,male_vraiment_flat_95.wav,0,False,2086,63,MASCULIN,6,0.426259,-19.601185
01111960,16,0,2024-03-04T12:39:01.724Z,male_vraiment_flat_155.wav,1,True,2086,63,MASCULIN,0,0.000000,-140.284917
01111960,16,0,2024-03-04T12:39:01.724Z,male_vraiment_flat_155.wav,1,True,2086,63,MASCULIN,1,0.071043,56.043903
01111960,16,0,2024-03-04T12:39:01.724Z,male_vraiment_flat_155.wav,1,True,2086,63,MASCULIN,2,0.142086,-2.142699
01111960,16,0,2024-03-04T12:39:01.724Z,male_vraiment_flat_155.wav,1,True,2086,63,MASCULIN,3,0.213129,-41.999388
01111960,16,0,2024-03-04T12:39:01.724Z,male_vraiment_flat_155.wav,1,True,2086,63,MASCULIN,4,0.284172,-69.522618
01111960,16,0,2024-03-04T12:39:01.724Z,male_vraiment_flat_155.wav,1,True,2086,63,MASCULIN,5,0.355215,29.697532
01111960,16,0,2024-03-04T12:39:01.724Z,male_vraiment_flat_155.wav,1,True,2086,63,MASCULIN,6,0.426259,40.565741
01111960,17,0,2024-03-04T12:39:01.724Z,male_vraiment_flat_150.wav,0,True,550,63,MASCULIN,0,0.000000,-0.845919
01111960,17,0,2024-03-04T12:39:01.724Z,male_vraiment_flat_150.wav,0,True,550,63,MASCULIN,1,0.071043,-101.665398
01111960,17,0,2024-03-04T12:39:01.724Z,male_vraiment_flat_150.wav,0,True,550,63,MASCULIN,2,0.142086,-128.909269
01111960,17,0,2024-03-04T12:39:01.724Z,male_vraiment_flat_150.wav,0,True,550,63,MASCULIN,3,0.213129,-98.956601
01111960,17,0,2024-03-04T12:39:01.724Z,male_vraiment_flat_150.wav,0,True,550,63,MASCULIN,4,0.284172,-120.693020
01111960,17,0,2024-03-04T12:39:01.724Z,male_vraiment_flat_150.wav,0,True,550,63,MASCULIN,5,0.355215,-126.286795
01111960,17,0,2024-03-04T12:39:01.724Z,male_vraiment_flat_150.wav,0,True,550,63,MASCULIN,6,0.426259,121.368949
01111960,17,0,2024-03-04T12:39:01.724Z,male_vraiment_flat_34.wav,1,False,550,63,MASCULIN,0,0.000000,55.759121
01111960,17,0,2024-03-04T12:39:01.724Z,male_vraiment_flat_34.wav,1,False,550,63,MASCULIN,1,0.071043,56.428420
01111960,17,0,2024-03-04T12:39:01.724Z,male_vraiment_flat_34.wav,1,False,550,63,MASCULIN,2,0.142086,-58.759553
01111960,17,0,2024-03-04T12:39:01.724Z,male_vraiment_flat_34.wav,1,False,550,63,MASCULIN,3,0.213129,-145.130290
01111960,17,0,2024-03-04T12:39:01.724Z,male_vraiment_flat_34.wav,1,False,550,63,MASCULIN,4,0.284172,109.056087
01111960,17,0,2024-03-04T12:39:01.724Z,male_vraiment_flat_34.wav,1,False,550,63,MASCULIN,5,0.355215,-133.281135
01111960,17,0,2024-03-04T12:39:01.724Z,male_vraiment_flat_34.wav,1,False,550,63,MASCULIN,6,0.426259,-126.261912
01111960,18,0,2024-03-04T12:39:01.724Z,male_vraiment_flat_108.wav,0,True,376,63,MASCULIN,0,0.000000,92.203113
01111960,18,0,2024-03-04T12:39:01.724Z,male_vraiment_flat_108.wav,0,True,376,63,MASCULIN,1,0.071043,-74.681876
01111960,18,0,2024-03-04T12:39:01.724Z,male_vraiment_flat_108.wav,0,True,376,63,MASCULIN,2,0.142086,-18.773488
01111960,18,0,2024-03-04T12:39:01.724Z,male_vraiment_flat_108.wav,0,True,376,63,MASCULIN,3,0.213129,73.054230
01111960,18,0,2024-03-04T12:39:01.724Z,male_vraiment_flat_108.wav,0,True,376,63,MASCULIN,4,0.284172,-72.824646
01111960,18,0,2024-03-04T12:39:01.724Z,male_vraiment_flat_108.wav,0,True,376,63,MASCULIN,5,0.355215,140.895697
01111960,18,0,2024-03-04T12:39:01.724Z,male_vraiment_flat_108.wav,0,True,376,63,MASCULIN,6,0.426259,13.161932
01111960,18,0,2024-03-04T12:39:01.724Z,male_vraiment_flat_134.wav,1,False,376,63,MASCULIN,0,0.000000,85.320049
01111960,18,0,2024-03-04T12:39:01.724Z,male_vraiment_flat_134.wav,1,False,376,63,MASCULIN,1,0.071043,2.147850
01111960,18,0,2024-03-04T12:39:01.724Z,male_vraiment_flat_134.wav,1,False,376,63,MASCULIN,2,0.142086,140.355465
01111960,18,0,2024-03-04T12:39:01.724Z,male_vraiment_flat_134.wav,1,False,376,63,MASCULIN,3,0.213129,98.923070
01111960,18,0,2024-03-04T12:39:01.724Z,male_vraiment_flat_134.wav,1,False,376,63,MASCULIN,4,0.284172,20.388975
01111960,18,0,2024-03-04T12:39:01.724Z,male_vraiment_flat_134.wav,1,False,376,63,MASCULIN,5,0.355215,-4.239426
01111960,18,0,2024-03-04T12:39:01.724Z,male_vraiment_flat_134.wav,1,False,376,63,MASCULIN,6,0.426259,83.444299
01111960,19,0,2024-03-04T12:39:01.724Z,male_vraiment_flat_145.wav,0,True,2734,63,MASCULIN,0,0.000000,-57.363512
01111960,19,0,2024-03-04T12:39:01.724Z,male_vraiment_flat_145.wav,0,True,2734,63,MASCULIN,1,0.071043,98.212837
01111960,19,0,2024-03-04T12:39:01.724Z,male_vraiment_flat_145.wav,0,True,2734,63,MASCULIN,2,0.142086,141.769894
01111960,19,0,2024-03-04T12:39:01.724Z,male_vraiment_flat_145.wav,0,True,2734,63,MASCULIN,3,0.213129,137.732142
01111960,19,0,2024-03-04T12:39:01.724Z,male_vraiment_flat_145.wav,0,True,2734,63,MASCULIN,4,0.284172,20.834317
01111960,19,0,2024-03-04T12:39:01.724Z,male_vraiment_flat_145.wav,0,True,2734,63,MASCULIN,5,0.355215,-134.972350
01111960,19,0,2024-03-04T12:39:01.724Z,male_vraiment_flat_145.wav,0,True,2734,63,MASCULIN,6,0.426259,-28.162434
01111960,19,0,2024-03-04T12:39:01.724Z,male_vraiment_flat_131.wav,1,False,2734,63,MASCULIN,0,0.000000,107.175705
01111960,19,0,2024-03-04T12:39:01.724Z,male_vraiment_flat_131.wav,1,False,2734,63,MASCULIN,1,0.071043,81.997533
01111960,19,0,2024-03-04T12:39:01.724Z,male_vraiment_flat_131.wav,1,False,2734,63,MASCULIN,2,0.142086,53.236564
01111960,19,0,2024-03-04T12:39:01.724Z,male_vraiment_flat_131.wav,1,False,2734,63,MASCULIN,3,0.213129,108.962563
01111960,19,0,2024-03-04T12:39:01.724Z,male_vraiment_flat_131.wav,1,False,2734,63,MASCULIN,4,0.284172,-22.910156
01111960,19,0,2024-03-04T12:39:01.724Z,male_vraiment_flat_131.wav,1,False,2734,63,MASCULIN,5,0.355215,133.743101
01111960,19,0,2024-03-04T12:39:01.724Z,male_vraiment_flat_131.wav,1,False,2734,63,MASCULIN,6,0.426259,98.652547
01111960,20,0,2024-03-04T12:39:01.724Z,male_vraiment_flat_96.wav,0,True,514,63,MASCULIN,0,0.000000,94.448216
01111960,20,0,2024-03-04T12:39:01.724Z,male_vraiment_flat_96.wav,0,True,514,63,MASCULIN,1,0.071043,52.639741
01111960,20,0,2024-03-04T12:39:01.724Z,male_vraiment_flat_96.wav,0,True,514,63,MASCULIN,2,0.142086,12.600351
01111960,20,0,2024-03-04T12:39:01.724Z,male_vraiment_flat_96.wav,0,True,514,63,MASCULIN,3,0.213129,53.097554
01111960,20,0,2024-03-04T12:39:01.724Z,male_vraiment_flat_96.wav,0,True,514,63,MASCULIN,4,0.284172,-62.165310
01111960,20,0,2024-03-04T12:39:01.724Z,male_vraiment_flat_96.wav,0,True,514,63,MASCULIN,5,0.355215,18.022684
01111960,20,0,2024-03-04T12:39:01.724Z,male_vraiment_flat_96.wav,0,True,514,63,MASCULIN,6,0.426259,-9.714791
01111960,20,0,2024-03-04T12:39:01.724Z,male_vraiment_flat_18.wav,1,False,514,63,MASCULIN,0,0.000000,-126.424441
01111960,20,0,2024-03-04T12:39:01.724Z,male_vraiment_flat_18.wav,1,False,514,63,MASCULIN,1,0.071043,-57.286238
01111960,20,0,2024-03-04T12:39:01.724Z,male_vraiment_flat_18.wav,1,False,514,63,MASCULIN,2,0.142086,14.494248
01111960,20,0,2024-03-04T12:39:01.724Z,male_vraiment_flat_18.wav,1,False,514,63,MASCULIN,3,0.213129,11.325267
01111960,20,0,2024-03-04T12:39:01.724Z,male_vraiment_flat_18.wav,1,False,514,63,MASCULIN,4,0.284172,-20.022709
01111960,20,0,2024-03-04T12:39:01.724Z,male_vraiment_flat_18.wav,1,False,514,63,MASCULIN,5,0.355215,-67.838631
01111960,20,0,2024-03-04T12:39:01.724Z,male_vraiment_flat_18.wav,1,False,514,63,MASCULIN,6,0.426259,-75.619086
01111960,21,0,2024-03-04T12:39:01.724Z,male_vraiment_flat_154.wav,0,True,258,63,MASCULIN,0,0.000000,-56.341735
01111960,21,0,2024-03-04T12:39:01.724Z,male_vraiment_flat_154.wav,0,True,258,63,MASCULIN,1,0.071043,15.133004
01111960,21,0,2024-03-04T12:39:01.724Z,male_vraiment_flat_154.wav,0,True,258,63,MASCULIN,2,0.142086,67.588138
01111960,21,0,2024-03-04T12:39:01.724Z,male_vraiment_flat_154.wav,0,True,258,63,MASCULIN,3,0.213129,4.827765
01111960,21,0,2024-03-04T12:39:01.724Z,male_vraiment_flat_154.wav,0,True,258,63,MASCULIN,4,0.284172,-119.124529
01111960,21,0,2024-03-04T12:39:01.724Z,male_vraiment_flat_154.wav,0,True,258,63,MASCULIN,5,0.355215,137.124750
01111960,21,0,2024-03-04T12:39:01.724Z,male_vraiment_flat_154.wav,0,True,258,63,MASCULIN,6,0.426259,-61.627299
01111960,21,0,2024-03-04T12:39:01.724Z,male_vraiment_flat_8.wav,1,False,258,63,MASCULIN,0,0.000000,88.027847
01111960,21,0,2024-03-04T12:39:01.724Z,male_vraiment_flat_8.wav,1,False,258,63,MASCULIN,1,0.071043,-108.976227
01111960,21,0,2024-03-04T12:39:01.724Z,male_vraiment_flat_8.wav,1,False,258,63,MASCULIN,2,0.142086,36.591048
01111960,21,0,2024-03-04T12:39:01.724Z,male_vraiment_flat_8.wav,1,False,258,63,MASCULIN,3,0.213129,7.260113
01111960,21,0,2024-03-04T12:39:01.724Z,male_vraiment_flat_8.wav,1,False,258,63,MASCULIN,4,0.284172,-133.690195
01111960,21,0,2024-03-04T12:39:01.724Z,male_vraiment_flat_8.wav,1,False,258,63,MASCULIN,5,0.355215,9.464811
01111960,21,0,2024-03-04T12:39:01.724Z,male_vraiment_flat_8.wav,1,False,258,63,MASCULIN,6,0.426259,-67.780032
01111960,22,0,2024-03-04T12:39:01.724Z,male_vraiment_flat_126.wav,0,True,521,63,MASCULIN,0,0.000000,23.450520
01111960,22,0,2024-03-04T12:39:01.724Z,male_vraiment_flat_126.wav,0,True,521,63,MASCULIN,1,0.071043,102.584681
01111960,22,0,2024-03-04T12:39:01.724Z,male_vraiment_flat_126.wav,0,True,521,63,MASCULIN,2,0.142086,38.224300
01111960,22,0,2024-03-04T12:39:01.724Z,male_vraiment_flat_126.wav,0,True,521,63,MASCULIN,3,0.213129,-16.427695
01111960,22,0,2024-03-04T12:39:01.724Z,male_vraiment_flat_126.wav,0,True,521,63,MASCULIN,4,0.284172,7.421137
01111960,22,0,2024-03-04T12:39:01.724Z,male_vraiment_flat_126.wav,0,True,521,63,MASCULIN,5,0.355215,-9.369055
01111960,22,0,2024-03-04T12:39:01.724Z,male_vraiment_flat_126.wav,0,True,521,63,MASCULIN,6,0.426259,-89.176758
01111960,22,0,2024-03-04T12:39:01.724Z,male_vraiment_flat_29.wav,1,False,521,63,MASCULIN,0,0.000000,78.626852
01111960,22,0,2024-03-04T12:39:01.724Z,male_vraiment_flat_29.wav,1,False,521,63,MASCULIN,1,0.071043,124.163952
01111960,22,0,2024-03-04T12:39:01.724Z,male_vraiment_flat_29.wav,1,False,521,63,MASCULIN,2,0.142086,-62.289103
01111960,22,0,2024-03-04T12:39:01.724Z,male_vraiment_flat_29.wav,1,False,521,63,MASCULIN,3,0.213129,54.806982
01111960,22,0,2024-03-04T12:39:01.724Z,male_vraiment_flat_29.wav,1,False,521,63,MASCULIN,4,0.284172,75.809549
01111960,22,0,2024-03-04T12:39:01.724Z,male_vraiment_flat_29.wav,1,False,521,63,MASCULIN,5,0.355215,87.233703
01111960,22,0,2024-03-04T12:39:01.724Z,male_vraiment_flat_29.wav,1,False,521,63,MASCULIN,6,0.426259,-95.916715
01111960,23,0,2024-03-04T12:39:01.724Z,male_vraiment_flat_191.wav,0,True,578,63,MASCULIN,0,0.000000,-3.321474
01111960,23,0,2024-03-04T12:39:01.724Z,male_vraiment_flat_191.wav,0,True,578,63,MASCULIN,1,0.071043,110.638678
01111960,23,0,2024-03-04T12:39:01.724Z,male_vraiment_flat_191.wav,0,True,578,63,MASCULIN,2,0.142086,142.170563
01111960,23,0,2024-03-04T12:39:01.724Z,male_vraiment_flat_191.wav,0,True,578,63,MASCULIN,3,0.213129,-110.761685
01111960,23,0,2024-03-04T12:39:01.724Z,male_vraiment_flat_191.wav,0,True,578,63,MASCULIN,4,0.284172,23.931067
01111960,23,0,2024-03-04T12:39:01.724Z,male_vraiment_flat_191.wav,0,True,578,63,MASCULIN,5,0.355215,-28.623113
01111960,23,0,2024-03-04T12:39:01.724Z,male_vraiment_flat_191.wav,0,True,578,63,MASCULIN,6,0.426259,68.073722
01111960,23,0,2024-03-04T12:39:01.724Z,male_vraiment_flat_0.wav,1,False,578,63,MASCULIN,0,0.000000,9.896041
01111960,23,0,2024-03-04T12:39:01.724Z,male_vraiment_flat_0.wav,1,False,578,63,MASCULIN,1,0.071043,101.528400
01111960,23,0,2024-03-04T12:39:01.724Z,male_vraiment_flat_0.wav,1,False,578,63,MASCULIN,2,0.142086,-68.097850
01111960,23,0,2024-03-04T12:39:01.724Z,male_vraiment_flat_0.wav,1,False,578,63,MASCULIN,3,0.213129,-142.658303
01111960,23,0,2024-03-04T12:39:01.724Z,male_vraiment_flat_0.wav,1,False,578,63,MASCULIN,4,0.284172,-120.248224
01111960,23,0,2024-03-04T12:39:01.724Z,male_vraiment_flat_0.wav,1,False,578,63,MASCULIN,5,0.355215,31.293845
01111960,23,0,2024-03-04T12:39:01.724Z,male_vraiment_flat_0.wav,1,False,578,63,MASCULIN,6,0.426259,-137.250528
01111960,24,0,2024-03-04T12:39:01.724Z,male_vraiment_flat_139.wav,0,True,554,63,MASCULIN,0,0.000000,-131.535185
01111960,24,0,2024-03-04T12:39:01.724Z,male_vraiment_flat_139.wav,0,True,554,63,MASCULIN,1,0.071043,-10.702864
01111960,24,0,2024-03-04T12:39:01.724Z,male_vraiment_flat_139.wav,0,True,554,63,MASCULIN,2,0.142086,-8.370040
01111960,24,0,2024-03-04T12:39:01.724Z,male_vraiment_flat_139.wav,0,True,554,63,MASCULIN,3,0.213129,83.706839
01111960,24,0,2024-03-04T12:39:01.724Z,male_vraiment_flat_139.wav,0,True,554,63,MASCULIN,4,0.284172,-28.836111
01111960,24,0,2024-03-04T12:39:01.724Z,male_vraiment_flat_139.wav,0,True,554,63,MASCULIN,5,0.355215,8.499607
01111960,24,0,2024-03-04T12:39:01.724Z,male_vraiment_flat_139.wav,0,True,554,63,MASCULIN,6,0.426259,-85.859123
01111960,24,0,2024-03-04T12:39:01.724Z,male_vraiment_flat_195.wav,1,False,554,63,MASCULIN,0,0.000000,-54.423844
01111960,24,0,2024-03-04T12:39:01.724Z,male_vraiment_flat_195.wav,1,False,554,63,MASCULIN,1,0.071043,81.067183
01111960,24,0,2024-03-04T12:39:01.724Z,male_vraiment_flat_195.wav,1,False,554,63,MASCULIN,2,0.142086,-60.396049
01111960,24,0,2024-03-04T12:39:01.724Z,male_vraiment_flat_195.wav,1,False,554,63,MASCULIN,3,0.213129,-65.685418
01111960,24,0,2024-03-04T12:39:01.724Z,male_vraiment_flat_195.wav,1,False,554,63,MASCULIN,4,0.284172,141.607211
01111960,24,0,2024-03-04T12:39:01.724Z,male_vraiment_flat_195.wav,1,False,554,63,MASCULIN,5,0.355215,37.879388
01111960,24,0,2024-03-04T12:39:01.724Z,male_vraiment_flat_195.wav,1,False,554,63,MASCULIN,6,0.426259,-52.972183
01111960,25,0,2024-03-04T12:39:01.724Z,male_vraiment_flat_27.wav,0,True,571,63,MASCULIN,0,0.000000,-44.196026
01111960,25,0,2024-03-04T12:39:01.724Z,male_vraiment_flat_27.wav,0,True,571,63,MASCULIN,1,0.071043,72.435582
01111960,25,0,2024-03-04T12:39:01.724Z,male_vraiment_flat_27.wav,0,True,571,63,MASCULIN,2,0.142086,30.880154
01111960,25,0,2024-03-04T12:39:01.724Z,male_vraiment_flat_27.wav,0,True,571,63,MASCULIN,3,0.213129,-98.055697
01111960,25,0,2024-03-04T12:39:01.724Z,male_vraiment_flat_27.wav,0,True,571,63,MASCULIN,4,0.284172,83.700413
01111960,25,0,2024-03-04T12:39:01.724Z,male_vraiment_flat_27.wav,0,True,571,63,MASCULIN,5,0.355215,23.865121
01111960,25,0,2024-03-04T12:39:01.724Z,male_vraiment_flat_27.wav,0,True,571,63,MASCULIN,6,0.426259,-44.006115
01111960,25,0,2024-03-04T12:39:01.724Z,male_vraiment_flat_177.wav,1,False,571,63,MASCULIN,0,0.000000,16.306046
01111960,25,0,2024-03-04T12:39:01.724Z,male_vraiment_flat_177.wav,1,False,571,63,MASCULIN,1,0.071043,49.193464
01111960,25,0,2024-03-04T12:39:01.724Z,male_vraiment_flat_177.wav,1,False,571,63,MASCULIN,2,0.142086,-57.450827
01111960,25,0,2024-03-04T12:39:01.724Z,male_vraiment_flat_177.wav,1,False,571,63,MASCULIN,3,0.213129,-71.200742
01111960,25,0,2024-03-04T12:39:01.724Z,male_vraiment_flat_177.wav,1,False,571,63,MASCULIN,4,0.284172,75.759547
01111960,25,0,2024-03-04T12:39:01.724Z,male_vraiment_flat_177.wav,1,False,571,63,MASCULIN,5,0.355215,-147.097868
01111960,25,0,2024-03-04T12:39:01.724Z,male_vraiment_flat_177.wav,1,False,571,63,MASCULIN,6,0.426259,-23.614561
01111960,26,0,2024-03-04T12:39:01.724Z,male_vraiment_flat_41.wav,0,True,368,63,MASCULIN,0,0.000000,-40.071689
01111960,26,0,2024-03-04T12:39:01.724Z,male_vraiment_flat_41.wav,0,True,368,63,MASCULIN,1,0.071043,-31.963638
01111960,26,0,2024-03-04T12:39:01.724Z,male_vraiment_flat_41.wav,0,True,368,63,MASCULIN,2,0.142086,-69.463296
01111960,26,0,2024-03-04T12:39:01.724Z,male_vraiment_flat_41.wav,0,True,368,63,MASCULIN,3,0.213129,-118.841278
01111960,26,0,2024-03-04T12:39:01.724Z,male_vraiment_flat_41.wav,0,True,368,63,MASCULIN,4,0.284172,80.615651
01111960,26,0,2024-03-04T12:39:01.724Z,male_vraiment_flat_41.wav,0,True,368,63,MASCULIN,5,0.355215,-132.443518
01111960,26,0,2024-03-04T12:39:01.724Z,male_vraiment_flat_41.wav,0,True,368,63,MASCULIN,6,0.426259,21.803113
01111960,26,0,2024-03-04T12:39:01.724Z,male_vraiment_flat_183.wav,1,False,368,63,MASCULIN,0,0.000000,102.527130
01111960,26,0,2024-03-04T12:39:01.724Z,male_vraiment_flat_183.wav,1,False,368,63,MASCULIN,1,0.071043,114.037020
01111960,26,0,2024-03-04T12:39:01.724Z,male_vraiment_flat_183.wav,1,False,368,63,MASCULIN,2,0.142086,-45.723055
01111960,26,0,2024-03-04T12:39:01.724Z,male_vraiment_flat_183.wav,1,False,368,63,MASCULIN,3,0.213129,-109.210749
01111960,26,0,2024-03-04T12:39:01.724Z,male_vraiment_flat_183.wav,1,False,368,63,MASCULIN,4,0.284172,-29.266312
01111960,26,0,2024-03-04T12:39:01.724Z,male_vraiment_flat_183.wav,1,False,368,63,MASCULIN,5,0.355215,-77.798514
01111960,26,0,2024-03-04T12:39:01.724Z,male_vraiment_flat_183.wav,1,False,368,63,MASCULIN,6,0.426259,-133.179439
01111960,27,0,2024-03-04T12:39:01.724Z,male_vraiment_flat_68.wav,0,True,362,63,MASCULIN,0,0.000000,-95.161618
01111960,27,0,2024-03-04T12:39:01.724Z,male_vraiment_flat_68.wav,0,True,362,63,MASCULIN,1,0.071043,-119.152564
01111960,27,0,2024-03-04T12:39:01.724Z,male_vraiment_flat_68.wav,0,True,362,63,MASCULIN,2,0.142086,18.051976
01111960,27,0,2024-03-04T12:39:01.724Z,male_vraiment_flat_68.wav,0,True,362,63,MASCULIN,3,0.213129,-26.870716
01111960,27,0,2024-03-04T12:39:01.724Z,male_vraiment_flat_68.wav,0,True,362,63,MASCULIN,4,0.284172,87.472746
01111960,27,0,2024-03-04T12:39:01.724Z,male_vraiment_flat_68.wav,0,True,362,63,MASCULIN,5,0.355215,-56.607347
01111960,27,0,2024-03-04T12:39:01.724Z,male_vraiment_flat_68.wav,0,True,362,63,MASCULIN,6,0.426259,148.066508
01111960,27,0,2024-03-04T12:39:01.724Z,male_vraiment_flat_123.wav,1,False,362,63,MASCULIN,0,0.000000,24.338681
01111960,27,0,2024-03-04T12:39:01.724Z,male_vraiment_flat_123.wav,1,False,362,63,MASCULIN,1,0.071043,-76.255610
01111960,27,0,2024-03-04T12:39:01.724Z,male_vraiment_flat_123.wav,1,False,362,63,MASCULIN,2,0.142086,16.829571
01111960,27,0,2024-03-04T12:39:01.724Z,male_vraiment_flat_123.wav,1,False,362,63,MASCULIN,3,0.213129,3.085792
01111960,27,0,2024-03-04T12:39:01.724Z,male_vraiment_flat_123.wav,1,False,362,63,MASCULIN,4,0.284172,81.658793
01111960,27,0,2024-03-04T12:39:01.724Z,male_vraiment_flat_123.wav,1,False,362,63,MASCULIN,5,0.355215,73.758354
01111960,27,0,2024-03-04T12:39:01.724Z,male_vraiment_flat_123.wav,1,False,362,63,MASCULIN,6,0.426259,103.644220
01111960,28,0,2024-03-04T12:39:01.724Z,male_vraiment_flat_121.wav,0,False,2144,63,MASCULIN,0,0.000000,-58.637887
01111960,28,0,2024-03-04T12:39:01.724Z,male_vraiment_flat_121.wav,0,False,2144,63,MASCULIN,1,0.071043,-104.347196
01111960,28,0,2024-03-04T12:39:01.724Z,male_vraiment_flat_121.wav,0,False,2144,63,MASCULIN,2,0.142086,149.905377
01111960,28,0,2024-03-04T12:39:01.724Z,male_vraiment_flat_121.wav,0,False,2144,63,MASCULIN,3,0.213129,-98.681631
01111960,28,0,2024-03-04T12:39:01.724Z,male_vraiment_flat_121.wav,0,False,2144,63,MASCULIN,4,0.284172,-147.265274
01111960,28,0,2024-03-04T12:39:01.724Z,male_vraiment_flat_121.wav,0,False,2144,63,MASCULIN,5,0.355215,64.587538
01111960,28,0,2024-03-04T12:39:01.724Z,male_vraiment_flat_121.wav,0,False,2144,63,MASCULIN,6,0.426259,26.674605
01111960,28,0,2024-03-04T12:39:01.724Z,male_vraiment_flat_56.wav,1,True,2144,63,MASCULIN,0,0.000000,30.953431
01111960,28,0,2024-03-04T12:39:01.724Z,male_vraiment_flat_56.wav,1,True,2144,63,MASCULIN,1,0.071043,-50.543389
01111960,28,0,2024-03-04T12:39:01.724Z,male_vraiment_flat_56.wav,1,True,2144,63,MASCULIN,2,0.142086,-40.325616
01111960,28,0,2024-03-04T12:39:01.724Z,male_vraiment_flat_56.wav,1,True,2144,63,MASCULIN,3,0.213129,130.397773
01111960,28,0,2024-03-04T12:39:01.724Z,male_vraiment_flat_56.wav,1,True,2144,63,MASCULIN,4,0.284172,-66.278306
01111960,28,0,2024-03-04T12:39:01.724Z,male_vraiment_flat_56.wav,1,True,2144,63,MASCULIN,5,0.355215,127.583751
01111960,28,0,2024-03-04T12:39:01.724Z,male_vraiment_flat_56.wav,1,True,2144,63,MASCULIN,6,0.426259,-120.769688
01111960,29,0,2024-03-04T12:39:01.724Z,male_vraiment_flat_33.wav,0,True,514,63,MASCULIN,0,0.000000,77.429006
01111960,29,0,2024-03-04T12:39:01.724Z,male_vraiment_flat_33.wav,0,True,514,63,MASCULIN,1,0.071043,25.170622
01111960,29,0,2024-03-04T12:39:01.724Z,male_vraiment_flat_33.wav,0,True,514,63,MASCULIN,2,0.142086,-65.854422
01111960,29,0,2024-03-04T12:39:01.724Z,male_vraiment_flat_33.wav,0,True,514,63,MASCULIN,3,0.213129,106.380035
01111960,29,0,2024-03-04T12:39:01.724Z,male_vraiment_flat_33.wav,0,True,514,63,MASCULIN,4,0.284172,126.948212
01111960,29,0,2024-03-04T12:39:01.724Z,male_vraiment_flat_33.wav,0,True,514,63,MASCULIN,5,0.355215,88.675782
01111960,29,0,2024-03-04T12:39:01.724Z,male_vraiment_flat_33.wav,0,True,514,63,MASCULIN,6,0.426259,-129.822255
01111960,29,0,2024-03-04T12:39:01.724Z,male_vraiment_flat_169.wav,1,False,514,63,MASCULIN,0,0.000000,117.441793
01111960,29,0,2024-03-04T12:39:01.724Z,male_vraiment_flat_169.wav,1,False,514,63,MASCULIN,1,0.071043,-117.459261
01111960,29,0,2024-03-04T12:39:01.724Z,male_vraiment_flat_169.wav,1,False,514,63,MASCULIN,2,0.142086,-45.020491
01111960,29,0,2024-03-04T12:39:01.724Z,male_vraiment_flat_169.wav,1,False,514,63,MASCULIN,3,0.213129,-67.699150
01111960,29,0,2024-03-04T12:39:01.724Z,male_vraiment_flat_169.wav,1,False,514,63,MASCULIN,4,0.284172,-122.755451
01111960,29,0,2024-03-04T12:39:01.724Z,male_vraiment_flat_169.wav,1,False,514,63,MASCULIN,5,0.355215,-10.702133
01111960,29,0,2024-03-04T12:39:01.724Z,male_vraiment_flat_169.wav,1,False,514,63,MASCULIN,6,0.426259,66.943327
01111960,30,0,2024-03-04T12:39:01.724Z,male_vraiment_flat_129.wav,0,True,695,63,MASCULIN,0,0.000000,121.236122
01111960,30,0,2024-03-04T12:39:01.724Z,male_vraiment_flat_129.wav,0,True,695,63,MASCULIN,1,0.071043,8.396736
01111960,30,0,2024-03-04T12:39:01.724Z,male_vraiment_flat_129.wav,0,True,695,63,MASCULIN,2,0.142086,-17.691364
01111960,30,0,2024-03-04T12:39:01.724Z,male_vraiment_flat_129.wav,0,True,695,63,MASCULIN,3,0.213129,73.711335
01111960,30,0,2024-03-04T12:39:01.724Z,male_vraiment_flat_129.wav,0,True,695,63,MASCULIN,4,0.284172,-117.430618
01111960,30,0,2024-03-04T12:39:01.724Z,male_vraiment_flat_129.wav,0,True,695,63,MASCULIN,5,0.355215,-12.936057
01111960,30,0,2024-03-04T12:39:01.724Z,male_vraiment_flat_129.wav,0,True,695,63,MASCULIN,6,0.426259,-63.494285
01111960,30,0,2024-03-04T12:39:01.724Z,male_vraiment_flat_168.wav,1,False,695,63,MASCULIN,0,0.000000,20.996757
01111960,30,0,2024-03-04T12:39:01.724Z,male_vraiment_flat_168.wav,1,False,695,63,MASCULIN,1,0.071043,53.221671
01111960,30,0,2024-03-04T12:39:01.724Z,male_vraiment_flat_168.wav,1,False,695,63,MASCULIN,2,0.142086,15.731623
01111960,30,0,2024-03-04T12:39:01.724Z,male_vraiment_flat_168.wav,1,False,695,63,MASCULIN,3,0.213129,99.382807
01111960,30,0,2024-03-04T12:39:01.724Z,male_vraiment_flat_168.wav,1,False,695,63,MASCULIN,4,0.284172,-57.914754
01111960,30,0,2024-03-04T12:39:01.724Z,male_vraiment_flat_168.wav,1,False,695,63,MASCULIN,5,0.355215,26.961730
01111960,30,0,2024-03-04T12:39:01.724Z,male_vraiment_flat_168.wav,1,False,695,63,MASCULIN,6,0.426259,-63.149674
01111960,31,0,2024-03-04T12:39:01.724Z,male_vraiment_flat_22.wav,0,True,476,63,MASCULIN,0,0.000000,131.811490
01111960,31,0,2024-03-04T12:39:01.724Z,male_vraiment_flat_22.wav,0,True,476,63,MASCULIN,1,0.071043,-17.710289
01111960,31,0,2024-03-04T12:39:01.724Z,male_vraiment_flat_22.wav,0,True,476,63,MASCULIN,2,0.142086,-106.310722
01111960,31,0,2024-03-04T12:39:01.724Z,male_vraiment_flat_22.wav,0,True,476,63,MASCULIN,3,0.213129,-118.997283
01111960,31,0,2024-03-04T12:39:01.724Z,male_vraiment_flat_22.wav,0,True,476,63,MASCULIN,4,0.284172,-44.158651
01111960,31,0,2024-03-04T12:39:01.724Z,male_vraiment_flat_22.wav,0,True,476,63,MASCULIN,5,0.355215,-65.057904
01111960,31,0,2024-03-04T12:39:01.724Z,male_vraiment_flat_22.wav,0,True,476,63,MASCULIN,6,0.426259,142.657358
01111960,31,0,2024-03-04T12:39:01.724Z,male_vraiment_flat_120.wav,1,False,476,63,MASCULIN,0,0.000000,20.081065
01111960,31,0,2024-03-04T12:39:01.724Z,male_vraiment_flat_120.wav,1,False,476,63,MASCULIN,1,0.071043,100.844988
01111960,31,0,2024-03-04T12:39:01.724Z,male_vraiment_flat_120.wav,1,False,476,63,MASCULIN,2,0.142086,-34.199178
01111960,31,0,2024-03-04T12:39:01.724Z,male_vraiment_flat_120.wav,1,False,476,63,MASCULIN,3,0.213129,-3.979999
01111960,31,0,2024-03-04T12:39:01.724Z,male_vraiment_flat_120.wav,1,False,476,63,MASCULIN,4,0.284172,-132.448085
01111960,31,0,2024-03-04T12:39:01.724Z,male_vraiment_flat_120.wav,1,False,476,63,MASCULIN,5,0.355215,-95.704719
01111960,31,0,2024-03-04T12:39:01.724Z,male_vraiment_flat_120.wav,1,False,476,63,MASCULIN,6,0.426259,-2.125632
01111960,32,0,2024-03-04T12:39:01.724Z,male_vraiment_flat_43.wav,0,True,335,63,MASCULIN,0,0.000000,49.290737
01111960,32,0,2024-03-04T12:39:01.724Z,male_vraiment_flat_43.wav,0,True,335,63,MASCULIN,1,0.071043,5.814602
01111960,32,0,2024-03-04T12:39:01.724Z,male_vraiment_flat_43.wav,0,True,335,63,MASCULIN,2,0.142086,-14.528706
01111960,32,0,2024-03-04T12:39:01.724Z,male_vraiment_flat_43.wav,0,True,335,63,MASCULIN,3,0.213129,53.076799
01111960,32,0,2024-03-04T12:39:01.724Z,male_vraiment_flat_43.wav,0,True,335,63,MASCULIN,4,0.284172,-30.290069
01111960,32,0,2024-03-04T12:39:01.724Z,male_vraiment_flat_43.wav,0,True,335,63,MASCULIN,5,0.355215,134.741064
01111960,32,0,2024-03-04T12:39:01.724Z,male_vraiment_flat_43.wav,0,True,335,63,MASCULIN,6,0.426259,54.746527
01111960,32,0,2024-03-04T12:39:01.724Z,male_vraiment_flat_57.wav,1,False,335,63,MASCULIN,0,0.000000,-38.971396
01111960,32,0,2024-03-04T12:39:01.724Z,male_vraiment_flat_57.wav,1,False,335,63,MASCULIN,1,0.071043,127.210639
01111960,32,0,2024-03-04T12:39:01.724Z,male_vraiment_flat_57.wav,1,False,335,63,MASCULIN,2,0.142086,-100.465383
01111960,32,0,2024-03-04T12:39:01.724Z,male_vraiment_flat_57.wav,1,False,335,63,MASCULIN,3,0.213129,-139.526819
01111960,32,0,2024-03-04T12:39:01.724Z,male_vraiment_flat_57.wav,1,False,335,63,MASCULIN,4,0.284172,-149.467980
01111960,32,0,2024-03-04T12:39:01.724Z,male_vraiment_flat_57.wav,1,False,335,63,MASCULIN,5,0.355215,-50.432071
01111960,32,0,2024-03-04T12:39:01.724Z,male_vraiment_flat_57.wav,1,False,335,63,MASCULIN,6,0.426259,15.305878
01111960,33,0,2024-03-04T12:39:01.724Z,male_vraiment_flat_87.wav,0,True,446,63,MASCULIN,0,0.000000,123.541183
01111960,33,0,2024-03-04T12:39:01.724Z,male_vraiment_flat_87.wav,0,True,446,63,MASCULIN,1,0.071043,-79.641893
01111960,33,0,2024-03-04T12:39:01.724Z,male_vraiment_flat_87.wav,0,True,446,63,MASCULIN,2,0.142086,-129.036775
01111960,33,0,2024-03-04T12:39:01.724Z,male_vraiment_flat_87.wav,0,True,446,63,MASCULIN,3,0.213129,-12.372422
01111960,33,0,2024-03-04T12:39:01.724Z,male_vraiment_flat_87.wav,0,True,446,63,MASCULIN,4,0.284172,47.099802
01111960,33,0,2024-03-04T12:39:01.724Z,male_vraiment_flat_87.wav,0,True,446,63,MASCULIN,5,0.355215,133.796504
01111960,33,0,2024-03-04T12:39:01.724Z,male_vraiment_flat_87.wav,0,True,446,63,MASCULIN,6,0.426259,125.051187
01111960,33,0,2024-03-04T12:39:01.724Z,male_vraiment_flat_158.wav,1,False,446,63,MASCULIN,0,0.000000,140.907348
01111960,33,0,2024-03-04T12:39:01.724Z,male_vraiment_flat_158.wav,1,False,446,63,MASCULIN,1,0.071043,56.647301
01111960,33,0,2024-03-04T12:39:01.724Z,male_vraiment_flat_158.wav,1,False,446,63,MASCULIN,2,0.142086,-121.852756
01111960,33,0,2024-03-04T12:39:01.724Z,male_vraiment_flat_158.wav,1,False,446,63,MASCULIN,3,0.213129,24.887877
01111960,33,0,2024-03-04T12:39:01.724Z,male_vraiment_flat_158.wav,1,False,446,63,MASCULIN,4,0.284172,-16.147612
01111960,33,0,2024-03-04T12:39:01.724Z,male_vraiment_flat_158.wav,1,False,446,63,MASCULIN,5,0.355215,22.171837
01111960,33,0,2024-03-04T12:39:01.724Z,male_vraiment_flat_158.wav,1,False,446,63,MASCULIN,6,0.426259,-49.022546
01111960,34,0,2024-03-04T12:39:01.724Z,male_vraiment_flat_80.wav,0,True,256,63,MASCULIN,0,0.000000,74.549472
01111960,34,0,2024-03-04T12:39:01.724Z,male_vraiment_flat_80.wav,0,True,256,63,MASCULIN,1,0.071043,28.548945
01111960,34,0,2024-03-04T12:39:01.724Z,male_vraiment_flat_80.wav,0,True,256,63,MASCULIN,2,0.142086,-70.639605
01111960,34,0,2024-03-04T12:39:01.724Z,male_vraiment_flat_80.wav,0,True,256,63,MASCULIN,3,0.213129,105.678511
01111960,34,0,2024-03-04T12:39:01.724Z,male_vraiment_flat_80.wav,0,True,256,63,MASCULIN,4,0.284172,54.429698
01111960,34,0,2024-03-04T12:39:01.724Z,male_vraiment_flat_80.wav,0,True,256,63,MASCULIN,5,0.355215,38.972413
01111960,34,0,2024-03-04T12:39:01.724Z,male_vraiment_flat_80.wav,0,True,256,63,MASCULIN,6,0.426259,36.313071
01111960,34,0,2024-03-04T12:39:01.724Z,male_vraiment_flat_182.wav,1,False,256,63,MASCULIN,0,0.000000,20.855134
01111960,34,0,2024-03-04T12:39:01.724Z,male_vraiment_flat_182.wav,1,False,256,63,MASCULIN,1,0.071043,131.000404
01111960,34,0,2024-03-04T12:39:01.724Z,male_vraiment_flat_182.wav,1,False,256,63,MASCULIN,2,0.142086,-24.691908
01111960,34,0,2024-03-04T12:39:01.724Z,male_vraiment_flat_182.wav,1,False,256,63,MASCULIN,3,0.213129,128.422786
01111960,34,0,2024-03-04T12:39:01.724Z,male_vraiment_flat_182.wav,1,False,256,63,MASCULIN,4,0.284172,-128.848387
01111960,34,0,2024-03-04T12:39:01.724Z,male_vraiment_flat_182.wav,1,False,256,63,MASCULIN,5,0.355215,118.792618
01111960,34,0,2024-03-04T12:39:01.724Z,male_vraiment_flat_182.wav,1,False,256,63,MASCULIN,6,0.426259,-92.475253
01111960,35,0,2024-03-04T12:39:01.724Z,male_vraiment_flat_65.wav,0,True,296,63,MASCULIN,0,0.000000,104.278510
01111960,35,0,2024-03-04T12:39:01.724Z,male_vraiment_flat_65.wav,0,True,296,63,MASCULIN,1,0.071043,120.742750
01111960,35,0,2024-03-04T12:39:01.724Z,male_vraiment_flat_65.wav,0,True,296,63,MASCULIN,2,0.142086,116.963717
01111960,35,0,2024-03-04T12:39:01.724Z,male_vraiment_flat_65.wav,0,True,296,63,MASCULIN,3,0.213129,-30.167489
01111960,35,0,2024-03-04T12:39:01.724Z,male_vraiment_flat_65.wav,0,True,296,63,MASCULIN,4,0.284172,58.482575
01111960,35,0,2024-03-04T12:39:01.724Z,male_vraiment_flat_65.wav,0,True,296,63,MASCULIN,5,0.355215,-35.240720
01111960,35,0,2024-03-04T12:39:01.724Z,male_vraiment_flat_65.wav,0,True,296,63,MASCULIN,6,0.426259,-49.851341
01111960,35,0,2024-03-04T12:39:01.724Z,male_vraiment_flat_198.wav,1,False,296,63,MASCULIN,0,0.000000,-103.630506
01111960,35,0,2024-03-04T12:39:01.724Z,male_vraiment_flat_198.wav,1,False,296,63,MASCULIN,1,0.071043,-84.165473
01111960,35,0,2024-03-04T12:39:01.724Z,male_vraiment_flat_198.wav,1,False,296,63,MASCULIN,2,0.142086,-14.577431
01111960,35,0,2024-03-04T12:39:01.724Z,male_vraiment_flat_198.wav,1,False,296,63,MASCULIN,3,0.213129,28.146235
01111960,35,0,2024-03-04T12:39:01.724Z,male_vraiment_flat_198.wav,1,False,296,63,MASCULIN,4,0.284172,-80.575165
01111960,35,0,2024-03-04T12:39:01.724Z,male_vraiment_flat_198.wav,1,False,296,63,MASCULIN,5,0.355215,-32.118902
01111960,35,0,2024-03-04T12:39:01.724Z,male_vraiment_flat_198.wav,1,False,296,63,MASCULIN,6,0.426259,78.303148
01111960,36,0,2024-03-04T12:39:01.724Z,male_vraiment_flat_88.wav,0,True,376,63,MASCULIN,0,0.000000,-104.432443
01111960,36,0,2024-03-04T12:39:01.724Z,male_vraiment_flat_88.wav,0,True,376,63,MASCULIN,1,0.071043,71.901933
01111960,36,0,2024-03-04T12:39:01.724Z,male_vraiment_flat_88.wav,0,True,376,63,MASCULIN,2,0.142086,62.017491
01111960,36,0,2024-03-04T12:39:01.724Z,male_vraiment_flat_88.wav,0,True,376,63,MASCULIN,3,0.213129,-148.109936
01111960,36,0,2024-03-04T12:39:01.724Z,male_vraiment_flat_88.wav,0,True,376,63,MASCULIN,4,0.284172,21.087169
01111960,36,0,2024-03-04T12:39:01.724Z,male_vraiment_flat_88.wav,0,True,376,63,MASCULIN,5,0.355215,98.793360
01111960,36,0,2024-03-04T12:39:01.724Z,male_vraiment_flat_88.wav,0,True,376,63,MASCULIN,6,0.426259,84.960800
01111960,36,0,2024-03-04T12:39:01.724Z,male_vraiment_flat_124.wav,1,False,376,63,MASCULIN,0,0.000000,-7.963711
01111960,36,0,2024-03-04T12:39:01.724Z,male_vraiment_flat_124.wav,1,False,376,63,MASCULIN,1,0.071043,-56.081883
01111960,36,0,2024-03-04T12:39:01.724Z,male_vraiment_flat_124.wav,1,False,376,63,MASCULIN,2,0.142086,-78.115299
01111960,36,0,2024-03-04T12:39:01.724Z,male_vraiment_flat_124.wav,1,False,376,63,MASCULIN,3,0.213129,-24.811935
01111960,36,0,2024-03-04T12:39:01.724Z,male_vraiment_flat_124.wav,1,False,376,63,MASCULIN,4,0.284172,-9.003272
01111960,36,0,2024-03-04T12:39:01.724Z,male_vraiment_flat_124.wav,1,False,376,63,MASCULIN,5,0.355215,13.712214
01111960,36,0,2024-03-04T12:39:01.724Z,male_vraiment_flat_124.wav,1,False,376,63,MASCULIN,6,0.426259,140.048390
01111960,37,0,2024-03-04T12:39:01.724Z,male_vraiment_flat_81.wav,0,True,287,63,MASCULIN,0,0.000000,35.884214
01111960,37,0,2024-03-04T12:39:01.724Z,male_vraiment_flat_81.wav,0,True,287,63,MASCULIN,1,0.071043,19.404831
01111960,37,0,2024-03-04T12:39:01.724Z,male_vraiment_flat_81.wav,0,True,287,63,MASCULIN,2,0.142086,121.693264
01111960,37,0,2024-03-04T12:39:01.724Z,male_vraiment_flat_81.wav,0,True,287,63,MASCULIN,3,0.213129,29.127429
01111960,37,0,2024-03-04T12:39:01.724Z,male_vraiment_flat_81.wav,0,True,287,63,MASCULIN,4,0.284172,71.322417
01111960,37,0,2024-03-04T12:39:01.724Z,male_vraiment_flat_81.wav,0,True,287,63,MASCULIN,5,0.355215,138.687922
01111960,37,0,2024-03-04T12:39:01.724Z,male_vraiment_flat_81.wav,0,True,287,63,MASCULIN,6,0.426259,110.537915
01111960,37,0,2024-03-04T12:39:01.724Z,male_vraiment_flat_10.wav,1,False,287,63,MASCULIN,0,0.000000,-59.283835
01111960,37,0,2024-03-04T12:39:01.724Z,male_vraiment_flat_10.wav,1,False,287,63,MASCULIN,1,0.071043,33.418752
01111960,37,0,2024-03-04T12:39:01.724Z,male_vraiment_flat_10.wav,1,False,287,63,MASCULIN,2,0.142086,-98.686452
01111960,37,0,2024-03-04T12:39:01.724Z,male_vraiment_flat_10.wav,1,False,287,63,MASCULIN,3,0.213129,137.870403
01111960,37,0,2024-03-04T12:39:01.724Z,male_vraiment_flat_10.wav,1,False,287,63,MASCULIN,4,0.284172,-113.384751
01111960,37,0,2024-03-04T12:39:01.724Z,male_vraiment_flat_10.wav,1,False,287,63,MASCULIN,5,0.355215,-122.497954
01111960,37,0,2024-03-04T12:39:01.724Z,male_vraiment_flat_10.wav,1,False,287,63,MASCULIN,6,0.426259,-121.154526
01111960,38,0,2024-03-04T12:39:01.724Z,male_vraiment_flat_187.wav,0,True,482,63,MASCULIN,0,0.000000,-30.403680
01111960,38,0,2024-03-04T12:39:01.724Z,male_vraiment_flat_187.wav,0,True,482,63,MASCULIN,1,0.071043,-60.531290
01111960,38,0,2024-03-04T12:39:01.724Z,male_vraiment_flat_187.wav,0,True,482,63,MASCULIN,2,0.142086,-84.335778
01111960,38,0,2024-03-04T12:39:01.724Z,male_vraiment_flat_187.wav,0,True,482,63,MASCULIN,3,0.213129,-15.670285
01111960,38,0,2024-03-04T12:39:01.724Z,male_vraiment_flat_187.wav,0,True,482,63,MASCULIN,4,0.284172,-56.852158
01111960,38,0,2024-03-04T12:39:01.724Z,male_vraiment_flat_187.wav,0,True,482,63,MASCULIN,5,0.355215,50.399162
01111960,38,0,2024-03-04T12:39:01.724Z,male_vraiment_flat_187.wav,0,True,482,63,MASCULIN,6,0.426259,83.384475
01111960,38,0,2024-03-04T12:39:01.724Z,male_vraiment_flat_45.wav,1,False,482,63,MASCULIN,0,0.000000,-108.869549
01111960,38,0,2024-03-04T12:39:01.724Z,male_vraiment_flat_45.wav,1,False,482,63,MASCULIN,1,0.071043,-22.660114
01111960,38,0,2024-03-04T12:39:01.724Z,male_vraiment_flat_45.wav,1,False,482,63,MASCULIN,2,0.142086,-141.096375
01111960,38,0,2024-03-04T12:39:01.724Z,male_vraiment_flat_45.wav,1,False,482,63,MASCULIN,3,0.213129,-24.815065
01111960,38,0,2024-03-04T12:39:01.724Z,male_vraiment_flat_45.wav,1,False,482,63,MASCULIN,4,0.284172,102.804681
01111960,38,0,2024-03-04T12:39:01.724Z,male_vraiment_flat_45.wav,1,False,482,63,MASCULIN,5,0.355215,112.365201
01111960,38,0,2024-03-04T12:39:01.724Z,male_vraiment_flat_45.wav,1,False,482,63,MASCULIN,6,0.426259,95.196821
01111960,39,0,2024-03-04T12:39:01.724Z,male_vraiment_flat_67.wav,0,False,2601,63,MASCULIN,0,0.000000,3.293259
01111960,39,0,2024-03-04T12:39:01.724Z,male_vraiment_flat_67.wav,0,False,2601,63,MASCULIN,1,0.071043,-46.547477
01111960,39,0,2024-03-04T12:39:01.724Z,male_vraiment_flat_67.wav,0,False,2601,63,MASCULIN,2,0.142086,54.624069
01111960,39,0,2024-03-04T12:39:01.724Z,male_vraiment_flat_67.wav,0,False,2601,63,MASCULIN,3,0.213129,-46.025939
01111960,39,0,2024-03-04T12:39:01.724Z,male_vraiment_flat_67.wav,0,False,2601,63,MASCULIN,4,0.284172,70.704507
01111960,39,0,2024-03-04T12:39:01.724Z,male_vraiment_flat_67.wav,0,False,2601,63,MASCULIN,5,0.355215,-47.199237
01111960,39,0,2024-03-04T12:39:01.724Z,male_vraiment_flat_67.wav,0,False,2601,63,MASCULIN,6,0.426259,147.575842
01111960,39,0,2024-03-04T12:39:01.724Z,male_vraiment_flat_140.wav,1,True,2601,63,MASCULIN,0,0.000000,-149.304179
01111960,39,0,2024-03-04T12:39:01.724Z,male_vraiment_flat_140.wav,1,True,2601,63,MASCULIN,1,0.071043,148.600586
01111960,39,0,2024-03-04T12:39:01.724Z,male_vraiment_flat_140.wav,1,True,2601,63,MASCULIN,2,0.142086,-115.715849
01111960,39,0,2024-03-04T12:39:01.724Z,male_vraiment_flat_140.wav,1,True,2601,63,MASCULIN,3,0.213129,139.265939
01111960,39,0,2024-03-04T12:39:01.724Z,male_vraiment_flat_140.wav,1,True,2601,63,MASCULIN,4,0.284172,45.121427
01111960,39,0,2024-03-04T12:39:01.724Z,male_vraiment_flat_140.wav,1,True,2601,63,MASCULIN,5,0.355215,-93.318951
01111960,39,0,2024-03-04T12:39:01.724Z,male_vraiment_flat_140.wav,1,True,2601,63,MASCULIN,6,0.426259,-66.215565
01111960,40,0,2024-03-04T12:39:01.724Z,male_vraiment_flat_175.wav,0,False,2580,63,MASCULIN,0,0.000000,-48.933192
01111960,40,0,2024-03-04T12:39:01.724Z,male_vraiment_flat_175.wav,0,False,2580,63,MASCULIN,1,0.071043,23.459372
01111960,40,0,2024-03-04T12:39:01.724Z,male_vraiment_flat_175.wav,0,False,2580,63,MASCULIN,2,0.142086,-82.944560
01111960,40,0,2024-03-04T12:39:01.724Z,male_vraiment_flat_175.wav,0,False,2580,63,MASCULIN,3,0.213129,-41.749231
01111960,40,0,2024-03-04T12:39:01.724Z,male_vraiment_flat_175.wav,0,False,2580,63,MASCULIN,4,0.284172,4.976289
01111960,40,0,2024-03-04T12:39:01.724Z,male_vraiment_flat_175.wav,0,False,2580,63,MASCULIN,5,0.355215,52.438424
01111960,40,0,2024-03-04T12:39:01.724Z,male_vraiment_flat_175.wav,0,False,2580,63,MASCULIN,6,0.426259,-117.325248
01111960,40,0,2024-03-04T12:39:01.724Z,male_vraiment_flat_44.wav,1,True,2580,63,MASCULIN,0,0.000000,-41.207511
01111960,40,0,2024-03-04T12:39:01.724Z,male_vraiment_flat_44.wav,1,True,2580,63,MASCULIN,1,0.071043,-36.343841
01111960,40,0,2024-03-04T12:39:01.724Z,male_vraiment_flat_44.wav,1,True,2580,63,MASCULIN,2,0.142086,111.477084
01111960,40,0,2024-03-04T12:39:01.724Z,male_vraiment_flat_44.wav,1,True,2580,63,MASCULIN,3,0.213129,5.942406
01111960,40,0,2024-03-04T12:39:01.724Z,male_vraiment_flat_44.wav,1,True,2580,63,MASCULIN,4,0.284172,108.539673
01111960,40,0,2024-03-04T12:39:01.724Z,male_vraiment_flat_44.wav,1,True,2580,63,MASCULIN,5,0.355215,-120.732661
01111960,40,0,2024-03-04T12:39:01.724Z,male_vraiment_flat_44.wav,1,True,2580,63,MASCULIN,6,0.426259,-22.824839
01111960,41,0,2024-03-04T12:39:01.724Z,male_vraiment_flat_92.wav,0,False,1049,63,MASCULIN,0,0.000000,46.869845
01111960,41,0,2024-03-04T12:39:01.724Z,male_vraiment_flat_92.wav,0,False,1049,63,MASCULIN,1,0.071043,-22.303854
01111960,41,0,2024-03-04T12:39:01.724Z,male_vraiment_flat_92.wav,0,False,1049,63,MASCULIN,2,0.142086,54.218629
01111960,41,0,2024-03-04T12:39:01.724Z,male_vraiment_flat_92.wav,0,False,1049,63,MASCULIN,3,0.213129,-37.706610
01111960,41,0,2024-03-04T12:39:01.724Z,male_vraiment_flat_92.wav,0,False,1049,63,MASCULIN,4,0.284172,48.467677
01111960,41,0,2024-03-04T12:39:01.724Z,male_vraiment_flat_92.wav,0,False,1049,63,MASCULIN,5,0.355215,-36.671620
01111960,41,0,2024-03-04T12:39:01.724Z,male_vraiment_flat_92.wav,0,False,1049,63,MASCULIN,6,0.426259,-103.238186
01111960,41,0,2024-03-04T12:39:01.724Z,male_vraiment_flat_16.wav,1,True,1049,63,MASCULIN,0,0.000000,141.243943
01111960,41,0,2024-03-04T12:39:01.724Z,male_vraiment_flat_16.wav,1,True,1049,63,MASCULIN,1,0.071043,-34.322435
01111960,41,0,2024-03-04T12:39:01.724Z,male_vraiment_flat_16.wav,1,True,1049,63,MASCULIN,2,0.142086,10.018864
01111960,41,0,2024-03-04T12:39:01.724Z,male_vraiment_flat_16.wav,1,True,1049,63,MASCULIN,3,0.213129,-24.066951
01111960,41,0,2024-03-04T12:39:01.724Z,male_vraiment_flat_16.wav,1,True,1049,63,MASCULIN,4,0.284172,45.502655
01111960,41,0,2024-03-04T12:39:01.724Z,male_vraiment_flat_16.wav,1,True,1049,63,MASCULIN,5,0.355215,107.276086
01111960,41,0,2024-03-04T12:39:01.724Z,male_vraiment_flat_16.wav,1,True,1049,63,MASCULIN,6,0.426259,58.110380
01111960,42,0,2024-03-04T12:39:01.724Z,male_vraiment_flat_93.wav,0,False,777,63,MASCULIN,0,0.000000,89.760217
01111960,42,0,2024-03-04T12:39:01.724Z,male_vraiment_flat_93.wav,0,False,777,63,MASCULIN,1,0.071043,18.591855
01111960,42,0,2024-03-04T12:39:01.724Z,male_vraiment_flat_93.wav,0,False,777,63,MASCULIN,2,0.142086,63.582537
01111960,42,0,2024-03-04T12:39:01.724Z,male_vraiment_flat_93.wav,0,False,777,63,MASCULIN,3,0.213129,147.491611
01111960,42,0,2024-03-04T12:39:01.724Z,male_vraiment_flat_93.wav,0,False,777,63,MASCULIN,4,0.284172,-113.128196
01111960,42,0,2024-03-04T12:39:01.724Z,male_vraiment_flat_93.wav,0,False,777,63,MASCULIN,5,0.355215,12.197118
01111960,42,0,2024-03-04T12:39:01.724Z,male_vraiment_flat_93.wav,0,False,777,63,MASCULIN,6,0.426259,-36.730637
01111960,42,0,2024-03-04T12:39:01.724Z,male_vraiment_flat_97.wav,1,True,777,63,MASCULIN,0,0.000000,-82.753908
01111960,42,0,2024-03-04T12:39:01.724Z,male_vraiment_flat_97.wav,1,True,777,63,MASCULIN,1,0.071043,-85.130238
01111960,42,0,2024-03-04T12:39:01.724Z,male_vraiment_flat_97.wav,1,True,777,63,MASCULIN,2,0.142086,-72.001027
01111960,42,0,2024-03-04T12:39:01.724Z,male_vraiment_flat_97.wav,1,True,777,63,MASCULIN,3,0.213129,-75.442204
01111960,42,0,2024-03-04T12:39:01.724Z,male_vraiment_flat_97.wav,1,True,777,63,MASCULIN,4,0.284172,147.061792
01111960,42,0,2024-03-04T12:39:01.724Z,male_vraiment_flat_97.wav,1,True,777,63,MASCULIN,5,0.355215,126.876511
01111960,42,0,2024-03-04T12:39:01.724Z,male_vraiment_flat_97.wav,1,True,777,63,MASCULIN,6,0.426259,96.208887
01111960,43,0,2024-03-04T12:39:01.724Z,male_vraiment_flat_36.wav,0,False,1973,63,MASCULIN,0,0.000000,-33.837960
01111960,43,0,2024-03-04T12:39:01.724Z,male_vraiment_flat_36.wav,0,False,1973,63,MASCULIN,1,0.071043,102.134309
01111960,43,0,2024-03-04T12:39:01.724Z,male_vraiment_flat_36.wav,0,False,1973,63,MASCULIN,2,0.142086,100.949665
01111960,43,0,2024-03-04T12:39:01.724Z,male_vraiment_flat_36.wav,0,False,1973,63,MASCULIN,3,0.213129,77.352428
01111960,43,0,2024-03-04T12:39:01.724Z,male_vraiment_flat_36.wav,0,False,1973,63,MASCULIN,4,0.284172,-1.995321
01111960,43,0,2024-03-04T12:39:01.724Z,male_vraiment_flat_36.wav,0,False,1973,63,MASCULIN,5,0.355215,-13.382838
01111960,43,0,2024-03-04T12:39:01.724Z,male_vraiment_flat_36.wav,0,False,1973,63,MASCULIN,6,0.426259,-42.807835
01111960,43,0,2024-03-04T12:39:01.724Z,male_vraiment_flat_55.wav,1,True,1973,63,MASCULIN,0,0.000000,41.960803
01111960,43,0,2024-03-04T12:39:01.724Z,male_vraiment_flat_55.wav,1,True,1973,63,MASCULIN,1,0.071043,-15.216637
01111960,43,0,2024-03-04T12:39:01.724Z,male_vraiment_flat_55.wav,1,True,1973,63,MASCULIN,2,0.142086,-141.495937
01111960,43,0,2024-03-04T12:39:01.724Z,male_vraiment_flat_55.wav,1,True,1973,63,MASCULIN,3,0.213129,-73.120481
01111960,43,0,2024-03-04T12:39:01.724Z,male_vraiment_flat_55.wav,1,True,1973,63,MASCULIN,4,0.284172,-46.277227
01111960,43,0,2024-03-04T12:39:01.724Z,male_vraiment_flat_55.wav,1,True,1973,63,MASCULIN,5,0.355215,60.235867
01111960,43,0,2024-03-04T12:39:01.724Z,male_vraiment_flat_55.wav,1,True,1973,63,MASCULIN,6,0.426259,0.915299
01111960,44,0,2024-03-04T12:39:01.724Z,male_vraiment_flat_174.wav,0,True,3763,63,MASCULIN,0,0.000000,12.449350
01111960,44,0,2024-03-04T12:39:01.724Z,male_vraiment_flat_174.wav,0,True,3763,63,MASCULIN,1,0.071043,17.986555
01111960,44,0,2024-03-04T12:39:01.724Z,male_vraiment_flat_174.wav,0,True,3763,63,MASCULIN,2,0.142086,-72.720888
01111960,44,0,2024-03-04T12:39:01.724Z,male_vraiment_flat_174.wav,0,True,3763,63,MASCULIN,3,0.213129,41.369679
01111960,44,0,2024-03-04T12:39:01.724Z,male_vraiment_flat_174.wav,0,True,3763,63,MASCULIN,4,0.284172,-146.787018
01111960,44,0,2024-03-04T12:39:01.724Z,male_vraiment_flat_174.wav,0,True,3763,63,MASCULIN,5,0.355215,3.271800
01111960,44,0,2024-03-04T12:39:01.724Z,male_vraiment_flat_174.wav,0,True,3763,63,MASCULIN,6,0.426259,26.686198
01111960,44,0,2024-03-04T12:39:01.724Z,male_vraiment_flat_15.wav,1,False,3763,63,MASCULIN,0,0.000000,-99.515509
01111960,44,0,2024-03-04T12:39:01.724Z,male_vraiment_flat_15.wav,1,False,3763,63,MASCULIN,1,0.071043,-34.266668
01111960,44,0,2024-03-04T12:39:01.724Z,male_vraiment_flat_15.wav,1,False,3763,63,MASCULIN,2,0.142086,14.847828
01111960,44,0,2024-03-04T12:39:01.724Z,male_vraiment_flat_15.wav,1,False,3763,63,MASCULIN,3,0.213129,69.933849
01111960,44,0,2024-03-04T12:39:01.724Z,male_vraiment_flat_15.wav,1,False,3763,63,MASCULIN,4,0.284172,112.308778
01111960,44,0,2024-03-04T12:39:01.724Z,male_vraiment_flat_15.wav,1,False,3763,63,MASCULIN,5,0.355215,84.391608
01111960,44,0,2024-03-04T12:39:01.724Z,male_vraiment_flat_15.wav,1,False,3763,63,MASCULIN,6,0.426259,-74.687150
01111960,45,0,2024-03-04T12:39:01.724Z,male_vraiment_flat_58.wav,0,True,445,63,MASCULIN,0,0.000000,-52.909251
01111960,45,0,2024-03-04T12:39:01.724Z,male_vraiment_flat_58.wav,0,True,445,63,MASCULIN,1,0.071043,-4.560860
01111960,45,0,2024-03-04T12:39:01.724Z,male_vraiment_flat_58.wav,0,True,445,63,MASCULIN,2,0.142086,-106.285240
01111960,45,0,2024-03-04T12:39:01.724Z,male_vraiment_flat_58.wav,0,True,445,63,MASCULIN,3,0.213129,-64.474310
01111960,45,0,2024-03-04T12:39:01.724Z,male_vraiment_flat_58.wav,0,True,445,63,MASCULIN,4,0.284172,-121.964639
01111960,45,0,2024-03-04T12:39:01.724Z,male_vraiment_flat_58.wav,0,True,445,63,MASCULIN,5,0.355215,35.204504
01111960,45,0,2024-03-04T12:39:01.724Z,male_vraiment_flat_58.wav,0,True,445,63,MASCULIN,6,0.426259,-7.933790
01111960,45,0,2024-03-04T12:39:01.724Z,male_vraiment_flat_79.wav,1,False,445,63,MASCULIN,0,0.000000,-102.946331
01111960,45,0,2024-03-04T12:39:01.724Z,male_vraiment_flat_79.wav,1,False,445,63,MASCULIN,1,0.071043,143.002978
01111960,45,0,2024-03-04T12:39:01.724Z,male_vraiment_flat_79.wav,1,False,445,63,MASCULIN,2,0.142086,-77.255333
01111960,45,0,2024-03-04T12:39:01.724Z,male_vraiment_flat_79.wav,1,False,445,63,MASCULIN,3,0.213129,139.308503
01111960,45,0,2024-03-04T12:39:01.724Z,male_vraiment_flat_79.wav,1,False,445,63,MASCULIN,4,0.284172,53.797207
01111960,45,0,2024-03-04T12:39:01.724Z,male_vraiment_flat_79.wav,1,False,445,63,MASCULIN,5,0.355215,-97.855801
01111960,45,0,2024-03-04T12:39:01.724Z,male_vraiment_flat_79.wav,1,False,445,63,MASCULIN,6,0.426259,15.451057
01111960,46,0,2024-03-04T12:39:01.724Z,male_vraiment_flat_37.wav,0,True,777,63,MASCULIN,0,0.000000,-50.449081
01111960,46,0,2024-03-04T12:39:01.724Z,male_vraiment_flat_37.wav,0,True,777,63,MASCULIN,1,0.071043,28.423389
01111960,46,0,2024-03-04T12:39:01.724Z,male_vraiment_flat_37.wav,0,True,777,63,MASCULIN,2,0.142086,-105.344692
01111960,46,0,2024-03-04T12:39:01.724Z,male_vraiment_flat_37.wav,0,True,777,63,MASCULIN,3,0.213129,-99.811505
01111960,46,0,2024-03-04T12:39:01.724Z,male_vraiment_flat_37.wav,0,True,777,63,MASCULIN,4,0.284172,142.698740
01111960,46,0,2024-03-04T12:39:01.724Z,male_vraiment_flat_37.wav,0,True,777,63,MASCULIN,5,0.355215,-90.971946
01111960,46,0,2024-03-04T12:39:01.724Z,male_vraiment_flat_37.wav,0,True,777,63,MASCULIN,6,0.426259,19.642948
01111960,46,0,2024-03-04T12:39:01.724Z,male_vraiment_flat_167.wav,1,False,777,63,MASCULIN,0,0.000000,-97.244470
01111960,46,0,2024-03-04T12:39:01.724Z,male_vraiment_flat_167.wav,1,False,777,63,MASCULIN,1,0.071043,55.519403
01111960,46,0,2024-03-04T12:39:01.724Z,male_vraiment_flat_167.wav,1,False,777,63,MASCULIN,2,0.142086,-125.285214
01111960,46,0,2024-03-04T12:39:01.724Z,male_vraiment_flat_167.wav,1,False,777,63,MASCULIN,3,0.213129,-87.843825
01111960,46,0,2024-03-04T12:39:01.724Z,male_vraiment_flat_167.wav,1,False,777,63,MASCULIN,4,0.284172,-127.750284
01111960,46,0,2024-03-04T12:39:01.724Z,male_vraiment_flat_167.wav,1,False,777,63,MASCULIN,5,0.355215,-93.631866
01111960,46,0,2024-03-04T12:39:01.724Z,male_vraiment_flat_167.wav,1,False,777,63,MASCULIN,6,0.426259,6.691804
01111960,47,0,2024-03-04T12:39:01.724Z,male_vraiment_flat_163.wav,0,True,752,63,MASCULIN,0,0.000000,-73.767207
01111960,47,0,2024-03-04T12:39:01.724Z,male_vraiment_flat_163.wav,0,True,752,63,MASCULIN,1,0.071043,23.213677
01111960,47,0,2024-03-04T12:39:01.724Z,male_vraiment_flat_163.wav,0,True,752,63,MASCULIN,2,0.142086,-14.939662
01111960,47,0,2024-03-04T12:39:01.724Z,male_vraiment_flat_163.wav,0,True,752,63,MASCULIN,3,0.213129,-71.864469
01111960,47,0,2024-03-04T12:39:01.724Z,male_vraiment_flat_163.wav,0,True,752,63,MASCULIN,4,0.284172,-38.295965
01111960,47,0,2024-03-04T12:39:01.724Z,male_vraiment_flat_163.wav,0,True,752,63,MASCULIN,5,0.355215,-52.851418
01111960,47,0,2024-03-04T12:39:01.724Z,male_vraiment_flat_163.wav,0,True,752,63,MASCULIN,6,0.426259,-70.943671
01111960,47,0,2024-03-04T12:39:01.724Z,male_vraiment_flat_26.wav,1,False,752,63,MASCULIN,0,0.000000,-135.344658
01111960,47,0,2024-03-04T12:39:01.724Z,male_vraiment_flat_26.wav,1,False,752,63,MASCULIN,1,0.071043,-76.172858
01111960,47,0,2024-03-04T12:39:01.724Z,male_vraiment_flat_26.wav,1,False,752,63,MASCULIN,2,0.142086,-130.999312
01111960,47,0,2024-03-04T12:39:01.724Z,male_vraiment_flat_26.wav,1,False,752,63,MASCULIN,3,0.213129,-146.306144
01111960,47,0,2024-03-04T12:39:01.724Z,male_vraiment_flat_26.wav,1,False,752,63,MASCULIN,4,0.284172,-78.266251
01111960,47,0,2024-03-04T12:39:01.724Z,male_vraiment_flat_26.wav,1,False,752,63,MASCULIN,5,0.355215,30.254136
01111960,47,0,2024-03-04T12:39:01.724Z,male_vraiment_flat_26.wav,1,False,752,63,MASCULIN,6,0.426259,-114.179281
01111960,48,0,2024-03-04T12:39:01.724Z,male_vraiment_flat_98.wav,0,True,369,63,MASCULIN,0,0.000000,102.170357
01111960,48,0,2024-03-04T12:39:01.724Z,male_vraiment_flat_98.wav,0,True,369,63,MASCULIN,1,0.071043,20.715456
01111960,48,0,2024-03-04T12:39:01.724Z,male_vraiment_flat_98.wav,0,True,369,63,MASCULIN,2,0.142086,81.972821
01111960,48,0,2024-03-04T12:39:01.724Z,male_vraiment_flat_98.wav,0,True,369,63,MASCULIN,3,0.213129,-125.018297
01111960,48,0,2024-03-04T12:39:01.724Z,male_vraiment_flat_98.wav,0,True,369,63,MASCULIN,4,0.284172,103.374214
01111960,48,0,2024-03-04T12:39:01.724Z,male_vraiment_flat_98.wav,0,True,369,63,MASCULIN,5,0.355215,-81.704677
01111960,48,0,2024-03-04T12:39:01.724Z,male_vraiment_flat_98.wav,0,True,369,63,MASCULIN,6,0.426259,85.109238
01111960,48,0,2024-03-04T12:39:01.724Z,male_vraiment_flat_118.wav,1,False,369,63,MASCULIN,0,0.000000,126.187147
01111960,48,0,2024-03-04T12:39:01.724Z,male_vraiment_flat_118.wav,1,False,369,63,MASCULIN,1,0.071043,44.969184
01111960,48,0,2024-03-04T12:39:01.724Z,male_vraiment_flat_118.wav,1,False,369,63,MASCULIN,2,0.142086,-108.017243
01111960,48,0,2024-03-04T12:39:01.724Z,male_vraiment_flat_118.wav,1,False,369,63,MASCULIN,3,0.213129,6.480803
01111960,48,0,2024-03-04T12:39:01.724Z,male_vraiment_flat_118.wav,1,False,369,63,MASCULIN,4,0.284172,89.811831
01111960,48,0,2024-03-04T12:39:01.724Z,male_vraiment_flat_118.wav,1,False,369,63,MASCULIN,5,0.355215,60.034007
01111960,48,0,2024-03-04T12:39:01.724Z,male_vraiment_flat_118.wav,1,False,369,63,MASCULIN,6,0.426259,63.317816
01111960,49,0,2024-03-04T12:39:01.724Z,male_vraiment_flat_54.wav,0,True,2759,63,MASCULIN,0,0.000000,117.470857
01111960,49,0,2024-03-04T12:39:01.724Z,male_vraiment_flat_54.wav,0,True,2759,63,MASCULIN,1,0.071043,-78.886002
01111960,49,0,2024-03-04T12:39:01.724Z,male_vraiment_flat_54.wav,0,True,2759,63,MASCULIN,2,0.142086,14.587652
01111960,49,0,2024-03-04T12:39:01.724Z,male_vraiment_flat_54.wav,0,True,2759,63,MASCULIN,3,0.213129,69.368451
01111960,49,0,2024-03-04T12:39:01.724Z,male_vraiment_flat_54.wav,0,True,2759,63,MASCULIN,4,0.284172,64.657305
01111960,49,0,2024-03-04T12:39:01.724Z,male_vraiment_flat_54.wav,0,True,2759,63,MASCULIN,5,0.355215,7.845227
01111960,49,0,2024-03-04T12:39:01.724Z,male_vraiment_flat_54.wav,0,True,2759,63,MASCULIN,6,0.426259,-11.003085
01111960,49,0,2024-03-04T12:39:01.724Z,male_vraiment_flat_132.wav,1,False,2759,63,MASCULIN,0,0.000000,-95.735908
01111960,49,0,2024-03-04T12:39:01.724Z,male_vraiment_flat_132.wav,1,False,2759,63,MASCULIN,1,0.071043,84.596174
01111960,49,0,2024-03-04T12:39:01.724Z,male_vraiment_flat_132.wav,1,False,2759,63,MASCULIN,2,0.142086,30.815879
01111960,49,0,2024-03-04T12:39:01.724Z,male_vraiment_flat_132.wav,1,False,2759,63,MASCULIN,3,0.213129,80.998062
01111960,49,0,2024-03-04T12:39:01.724Z,male_vraiment_flat_132.wav,1,False,2759,63,MASCULIN,4,0.284172,4.635713
01111960,49,0,2024-03-04T12:39:01.724Z,male_vraiment_flat_132.wav,1,False,2759,63,MASCULIN,5,0.355215,-66.322755
01111960,49,0,2024-03-04T12:39:01.724Z,male_vraiment_flat_132.wav,1,False,2759,63,MASCULIN,6,0.426259,13.571979
01111960,50,1,2024-03-04T12:39:01.724Z,male_vraiment_flat_185.wav,0,True,419,63,MASCULIN,0,0.000000,7.537788
01111960,50,1,2024-03-04T12:39:01.724Z,male_vraiment_flat_185.wav,0,True,419,63,MASCULIN,1,0.071043,138.761382
01111960,50,1,2024-03-04T12:39:01.724Z,male_vraiment_flat_185.wav,0,True,419,63,MASCULIN,2,0.142086,88.970452
01111960,50,1,2024-03-04T12:39:01.724Z,male_vraiment_flat_185.wav,0,True,419,63,MASCULIN,3,0.213129,-106.980409
01111960,50,1,2024-03-04T12:39:01.724Z,male_vraiment_flat_185.wav,0,True,419,63,MASCULIN,4,0.284172,-72.334155
01111960,50,1,2024-03-04T12:39:01.724Z,male_vraiment_flat_185.wav,0,True,419,63,MASCULIN,5,0.355215,87.356426
01111960,50,1,2024-03-04T12:39:01.724Z,male_vraiment_flat_185.wav,0,True,419,63,MASCULIN,6,0.426259,90.917936
01111960,50,1,2024-03-04T12:39:01.724Z,male_vraiment_flat_3.wav,1,False,419,63,MASCULIN,0,0.000000,139.821339
01111960,50,1,2024-03-04T12:39:01.724Z,male_vraiment_flat_3.wav,1,False,419,63,MASCULIN,1,0.071043,-90.088416
01111960,50,1,2024-03-04T12:39:01.724Z,male_vraiment_flat_3.wav,1,False,419,63,MASCULIN,2,0.142086,-144.376143
01111960,50,1,2024-03-04T12:39:01.724Z,male_vraiment_flat_3.wav,1,False,419,63,MASCULIN,3,0.213129,-83.117215
01111960,50,1,2024-03-04T12:39:01.724Z,male_vraiment_flat_3.wav,1,False,419,63,MASCULIN,4,0.284172,-15.266959
01111960,50,1,2024-03-04T12:39:01.724Z,male_vraiment_flat_3.wav,1,False,419,63,MASCULIN,5,0.355215,-78.645111
01111960,50,1,2024-03-04T12:39:01.724Z,male_vraiment_flat_3.wav,1,False,419,63,MASCULIN,6,0.426259,18.566710
01111960,51,1,2024-03-04T12:39:01.724Z,male_vraiment_flat_40.wav,0,False,2675,63,MASCULIN,0,0.000000,14.191871
01111960,51,1,2024-03-04T12:39:01.724Z,male_vraiment_flat_40.wav,0,False,2675,63,MASCULIN,1,0.071043,-146.480257
01111960,51,1,2024-03-04T12:39:01.724Z,male_vraiment_flat_40.wav,0,False,2675,63,MASCULIN,2,0.142086,53.736102
01111960,51,1,2024-03-04T12:39:01.724Z,male_vraiment_flat_40.wav,0,False,2675,63,MASCULIN,3,0.213129,76.339598
01111960,51,1,2024-03-04T12:39:01.724Z,male_vraiment_flat_40.wav,0,False,2675,63,MASCULIN,4,0.284172,128.682971
01111960,51,1,2024-03-04T12:39:01.724Z,male_vraiment_flat_40.wav,0,False,2675,63,MASCULIN,5,0.355215,-84.474700
01111960,51,1,2024-03-04T12:39:01.724Z,male_vraiment_flat_40.wav,0,False,2675,63,MASCULIN,6,0.426259,41.341932
01111960,51,1,2024-03-04T12:39:01.724Z,male_vraiment_flat_90.wav,1,True,2675,63,MASCULIN,0,0.000000,39.615876
01111960,51,1,2024-03-04T12:39:01.724Z,male_vraiment_flat_90.wav,1,True,2675,63,MASCULIN,1,0.071043,-130.464689
01111960,51,1,2024-03-04T12:39:01.724Z,male_vraiment_flat_90.wav,1,True,2675,63,MASCULIN,2,0.142086,46.838016
01111960,51,1,2024-03-04T12:39:01.724Z,male_vraiment_flat_90.wav,1,True,2675,63,MASCULIN,3,0.213129,104.861302
01111960,51,1,2024-03-04T12:39:01.724Z,male_vraiment_flat_90.wav,1,True,2675,63,MASCULIN,4,0.284172,-102.459680
01111960,51,1,2024-03-04T12:39:01.724Z,male_vraiment_flat_90.wav,1,True,2675,63,MASCULIN,5,0.355215,-91.275011
01111960,51,1,2024-03-04T12:39:01.724Z,male_vraiment_flat_90.wav,1,True,2675,63,MASCULIN,6,0.426259,45.823426
01111960,52,1,2024-03-04T12:39:01.724Z,male_vraiment_flat_49.wav,0,False,1687,63,MASCULIN,0,0.000000,-83.600042
01111960,52,1,2024-03-04T12:39:01.724Z,male_vraiment_flat_49.wav,0,False,1687,63,MASCULIN,1,0.071043,-14.728623
01111960,52,1,2024-03-04T12:39:01.724Z,male_vraiment_flat_49.wav,0,False,1687,63,MASCULIN,2,0.142086,25.142138
01111960,52,1,2024-03-04T12:39:01.724Z,male_vraiment_flat_49.wav,0,False,1687,63,MASCULIN,3,0.213129,135.875151
01111960,52,1,2024-03-04T12:39:01.724Z,male_vraiment_flat_49.wav,0,False,1687,63,MASCULIN,4,0.284172,60.117986
01111960,52,1,2024-03-04T12:39:01.724Z,male_vraiment_flat_49.wav,0,False,1687,63,MASCULIN,5,0.355215,-135.086661
01111960,52,1,2024-03-04T12:39:01.724Z,male_vraiment_flat_49.wav,0,False,1687,63,MASCULIN,6,0.426259,-32.809615
01111960,52,1,2024-03-04T12:39:01.724Z,male_vraiment_flat_138.wav,1,True,1687,63,MASCULIN,0,0.000000,-29.536298
01111960,52,1,2024-03-04T12:39:01.724Z,male_vraiment_flat_138.wav,1,True,1687,63,MASCULIN,1,0.071043,90.685935
01111960,52,1,2024-03-04T12:39:01.724Z,male_vraiment_flat_138.wav,1,True,1687,63,MASCULIN,2,0.142086,-77.044346
01111960,52,1,2024-03-04T12:39:01.724Z,male_vraiment_flat_138.wav,1,True,1687,63,MASCULIN,3,0.213129,-75.264885
01111960,52,1,2024-03-04T12:39:01.724Z,male_vraiment_flat_138.wav,1,True,1687,63,MASCULIN,4,0.284172,-129.490236
01111960,52,1,2024-03-04T12:39:01.724Z,male_vraiment_flat_138.wav,1,True,1687,63,MASCULIN,5,0.355215,-48.940612
01111960,52,1,2024-03-04T12:39:01.724Z,male_vraiment_flat_138.wav,1,True,1687,63,MASCULIN,6,0.426259,-95.647001
01111960,53,1,2024-03-04T12:39:01.724Z,male_vraiment_flat_63.wav,0,True,1849,63,MASCULIN,0,0.000000,106.489910
01111960,53,1,2024-03-04T12:39:01.724Z,male_vraiment_flat_63.wav,0,True,1849,63,MASCULIN,1,0.071043,-87.090173
01111960,53,1,2024-03-04T12:39:01.724Z,male_vraiment_flat_63.wav,0,True,1849,63,MASCULIN,2,0.142086,63.865444
01111960,53,1,2024-03-04T12:39:01.724Z,male_vraiment_flat_63.wav,0,True,1849,63,MASCULIN,3,0.213129,-130.111458
01111960,53,1,2024-03-04T12:39:01.724Z,male_vraiment_flat_63.wav,0,True,1849,63,MASCULIN,4,0.284172,45.870405
01111960,53,1,2024-03-04T12:39:01.724Z,male_vraiment_flat_63.wav,0,True,1849,63,MASCULIN,5,0.355215,-60.104934
01111960,53,1,2024-03-04T12:39:01.724Z,male_vraiment_flat_63.wav,0,True,1849,63,MASCULIN,6,0.426259,67.674520
01111960,53,1,2024-03-04T12:39:01.724Z,male_vraiment_flat_82.wav,1,False,1849,63,MASCULIN,0,0.000000,14.171085
01111960,53,1,2024-03-04T12:39:01.724Z,male_vraiment_flat_82.wav,1,False,1849,63,MASCULIN,1,0.071043,-68.153896
01111960,53,1,2024-03-04T12:39:01.724Z,male_vraiment_flat_82.wav,1,False,1849,63,MASCULIN,2,0.142086,-24.679362
01111960,53,1,2024-03-04T12:39:01.724Z,male_vraiment_flat_82.wav,1,False,1849,63,MASCULIN,3,0.213129,-58.364866
01111960,53,1,2024-03-04T12:39:01.724Z,male_vraiment_flat_82.wav,1,False,1849,63,MASCULIN,4,0.284172,-35.694955
01111960,53,1,2024-03-04T12:39:01.724Z,male_vraiment_flat_82.wav,1,False,1849,63,MASCULIN,5,0.355215,-79.701050
01111960,53,1,2024-03-04T12:39:01.724Z,male_vraiment_flat_82.wav,1,False,1849,63,MASCULIN,6,0.426259,-70.571097
01111960,54,1,2024-03-04T12:39:01.724Z,male_vraiment_flat_192.wav,0,False,1214,63,MASCULIN,0,0.000000,46.973159
01111960,54,1,2024-03-04T12:39:01.724Z,male_vraiment_flat_192.wav,0,False,1214,63,MASCULIN,1,0.071043,-61.711820
01111960,54,1,2024-03-04T12:39:01.724Z,male_vraiment_flat_192.wav,0,False,1214,63,MASCULIN,2,0.142086,14.836428
01111960,54,1,2024-03-04T12:39:01.724Z,male_vraiment_flat_192.wav,0,False,1214,63,MASCULIN,3,0.213129,30.862549
01111960,54,1,2024-03-04T12:39:01.724Z,male_vraiment_flat_192.wav,0,False,1214,63,MASCULIN,4,0.284172,28.459321
01111960,54,1,2024-03-04T12:39:01.724Z,male_vraiment_flat_192.wav,0,False,1214,63,MASCULIN,5,0.355215,2.114815
01111960,54,1,2024-03-04T12:39:01.724Z,male_vraiment_flat_192.wav,0,False,1214,63,MASCULIN,6,0.426259,86.651936
01111960,54,1,2024-03-04T12:39:01.724Z,male_vraiment_flat_106.wav,1,True,1214,63,MASCULIN,0,0.000000,13.442505
01111960,54,1,2024-03-04T12:39:01.724Z,male_vraiment_flat_106.wav,1,True,1214,63,MASCULIN,1,0.071043,67.880832
01111960,54,1,2024-03-04T12:39:01.724Z,male_vraiment_flat_106.wav,1,True,1214,63,MASCULIN,2,0.142086,105.927648
01111960,54,1,2024-03-04T12:39:01.724Z,male_vraiment_flat_106.wav,1,True,1214,63,MASCULIN,3,0.213129,65.041696
01111960,54,1,2024-03-04T12:39:01.724Z,male_vraiment_flat_106.wav,1,True,1214,63,MASCULIN,4,0.284172,-59.466654
01111960,54,1,2024-03-04T12:39:01.724Z,male_vraiment_flat_106.wav,1,True,1214,63,MASCULIN,5,0.355215,55.710963
01111960,54,1,2024-03-04T12:39:01.724Z,male_vraiment_flat_106.wav,1,True,1214,63,MASCULIN,6,0.426259,127.964857
01111960,55,1,2024-03-04T12:39:01.724Z,male_vraiment_flat_72.wav,0,True,1372,63,MASCULIN,0,0.000000,-108.464526
01111960,55,1,2024-03-04T12:39:01.724Z,male_vraiment_flat_72.wav,0,True,1372,63,MASCULIN,1,0.071043,78.835335
01111960,55,1,2024-03-04T12:39:01.724Z,male_vraiment_flat_72.wav,0,True,1372,63,MASCULIN,2,0.142086,134.553834
01111960,55,1,2024-03-04T12:39:01.724Z,male_vraiment_flat_72.wav,0,True,1372,63,MASCULIN,3,0.213129,5.396534
01111960,55,1,2024-03-04T12:39:01.724Z,male_vraiment_flat_72.wav,0,True,1372,63,MASCULIN,4,0.284172,7.798595
01111960,55,1,2024-03-04T12:39:01.724Z,male_vraiment_flat_72.wav,0,True,1372,63,MASCULIN,5,0.355215,65.510626
01111960,55,1,2024-03-04T12:39:01.724Z,male_vraiment_flat_72.wav,0,True,1372,63,MASCULIN,6,0.426259,-103.798030
01111960,55,1,2024-03-04T12:39:01.724Z,male_vraiment_flat_51.wav,1,False,1372,63,MASCULIN,0,0.000000,130.517111
01111960,55,1,2024-03-04T12:39:01.724Z,male_vraiment_flat_51.wav,1,False,1372,63,MASCULIN,1,0.071043,138.869679
01111960,55,1,2024-03-04T12:39:01.724Z,male_vraiment_flat_51.wav,1,False,1372,63,MASCULIN,2,0.142086,-34.276776
01111960,55,1,2024-03-04T12:39:01.724Z,male_vraiment_flat_51.wav,1,False,1372,63,MASCULIN,3,0.213129,76.935346
01111960,55,1,2024-03-04T12:39:01.724Z,male_vraiment_flat_51.wav,1,False,1372,63,MASCULIN,4,0.284172,-118.523911
01111960,55,1,2024-03-04T12:39:01.724Z,male_vraiment_flat_51.wav,1,False,1372,63,MASCULIN,5,0.355215,-103.328524
01111960,55,1,2024-03-04T12:39:01.724Z,male_vraiment_flat_51.wav,1,False,1372,63,MASCULIN,6,0.426259,-14.442096
01111960,56,1,2024-03-04T12:39:01.724Z,male_vraiment_flat_9.wav,0,False,1989,63,MASCULIN,0,0.000000,85.332288
01111960,56,1,2024-03-04T12:39:01.724Z,male_vraiment_flat_9.wav,0,False,1989,63,MASCULIN,1,0.071043,-113.949520
01111960,56,1,2024-03-04T12:39:01.724Z,male_vraiment_flat_9.wav,0,False,1989,63,MASCULIN,2,0.142086,22.848070
01111960,56,1,2024-03-04T12:39:01.724Z,male_vraiment_flat_9.wav,0,False,1989,63,MASCULIN,3,0.213129,-135.528843
01111960,56,1,2024-03-04T12:39:01.724Z,male_vraiment_flat_9.wav,0,False,1989,63,MASCULIN,4,0.284172,76.460330
01111960,56,1,2024-03-04T12:39:01.724Z,male_vraiment_flat_9.wav,0,False,1989,63,MASCULIN,5,0.355215,72.455461
01111960,56,1,2024-03-04T12:39:01.724Z,male_vraiment_flat_9.wav,0,False,1989,63,MASCULIN,6,0.426259,-135.542556
01111960,56,1,2024-03-04T12:39:01.724Z,male_vraiment_flat_114.wav,1,True,1989,63,MASCULIN,0,0.000000,-107.614700
01111960,56,1,2024-03-04T12:39:01.724Z,male_vraiment_flat_114.wav,1,True,1989,63,MASCULIN,1,0.071043,-121.606705
01111960,56,1,2024-03-04T12:39:01.724Z,male_vraiment_flat_114.wav,1,True,1989,63,MASCULIN,2,0.142086,26.820871
01111960,56,1,2024-03-04T12:39:01.724Z,male_vraiment_flat_114.wav,1,True,1989,63,MASCULIN,3,0.213129,42.957584
01111960,56,1,2024-03-04T12:39:01.724Z,male_vraiment_flat_114.wav,1,True,1989,63,MASCULIN,4,0.284172,-48.053802
01111960,56,1,2024-03-04T12:39:01.724Z,male_vraiment_flat_114.wav,1,True,1989,63,MASCULIN,5,0.355215,-10.474627
01111960,56,1,2024-03-04T12:39:01.724Z,male_vraiment_flat_114.wav,1,True,1989,63,MASCULIN,6,0.426259,-131.069216
01111960,57,1,2024-03-04T12:39:01.724Z,male_vraiment_flat_152.wav,0,False,3439,63,MASCULIN,0,0.000000,-121.409464
01111960,57,1,2024-03-04T12:39:01.724Z,male_vraiment_flat_152.wav,0,False,3439,63,MASCULIN,1,0.071043,26.229918
01111960,57,1,2024-03-04T12:39:01.724Z,male_vraiment_flat_152.wav,0,False,3439,63,MASCULIN,2,0.142086,46.107283
01111960,57,1,2024-03-04T12:39:01.724Z,male_vraiment_flat_152.wav,0,False,3439,63,MASCULIN,3,0.213129,-122.378424
01111960,57,1,2024-03-04T12:39:01.724Z,male_vraiment_flat_152.wav,0,False,3439,63,MASCULIN,4,0.284172,64.911076
01111960,57,1,2024-03-04T12:39:01.724Z,male_vraiment_flat_152.wav,0,False,3439,63,MASCULIN,5,0.355215,129.744578
01111960,57,1,2024-03-04T12:39:01.724Z,male_vraiment_flat_152.wav,0,False,3439,63,MASCULIN,6,0.426259,51.632825
01111960,57,1,2024-03-04T12:39:01.724Z,male_vraiment_flat_127.wav,1,True,3439,63,MASCULIN,0,0.000000,143.598511
01111960,57,1,2024-03-04T12:39:01.724Z,male_vraiment_flat_127.wav,1,True,3439,63,MASCULIN,1,0.071043,23.645136
01111960,57,1,2024-03-04T12:39:01.724Z,male_vraiment_flat_127.wav,1,True,3439,63,MASCULIN,2,0.142086,-118.740497
01111960,57,1,2024-03-04T12:39:01.724Z,male_vraiment_flat_127.wav,1,True,3439,63,MASCULIN,3,0.213129,-109.046436
01111960,57,1,2024-03-04T12:39:01.724Z,male_vraiment_flat_127.wav,1,True,3439,63,MASCULIN,4,0.284172,66.022521
01111960,57,1,2024-03-04T12:39:01.724Z,male_vraiment_flat_127.wav,1,True,3439,63,MASCULIN,5,0.355215,-13.059175
01111960,57,1,2024-03-04T12:39:01.724Z,male_vraiment_flat_127.wav,1,True,3439,63,MASCULIN,6,0.426259,22.700660
01111960,58,1,2024-03-04T12:39:01.724Z,male_vraiment_flat_86.wav,0,False,1673,63,MASCULIN,0,0.000000,85.260205
01111960,58,1,2024-03-04T12:39:01.724Z,male_vraiment_flat_86.wav,0,False,1673,63,MASCULIN,1,0.071043,-4.684566
01111960,58,1,2024-03-04T12:39:01.724Z,male_vraiment_flat_86.wav,0,False,1673,63,MASCULIN,2,0.142086,133.406345
01111960,58,1,2024-03-04T12:39:01.724Z,male_vraiment_flat_86.wav,0,False,1673,63,MASCULIN,3,0.213129,110.454503
01111960,58,1,2024-03-04T12:39:01.724Z,male_vraiment_flat_86.wav,0,False,1673,63,MASCULIN,4,0.284172,38.373367
01111960,58,1,2024-03-04T12:39:01.724Z,male_vraiment_flat_86.wav,0,False,1673,63,MASCULIN,5,0.355215,75.992097
01111960,58,1,2024-03-04T12:39:01.724Z,male_vraiment_flat_86.wav,0,False,1673,63,MASCULIN,6,0.426259,-87.651019
01111960,58,1,2024-03-04T12:39:01.724Z,male_vraiment_flat_199.wav,1,True,1673,63,MASCULIN,0,0.000000,-30.664010
01111960,58,1,2024-03-04T12:39:01.724Z,male_vraiment_flat_199.wav,1,True,1673,63,MASCULIN,1,0.071043,2.060872
01111960,58,1,2024-03-04T12:39:01.724Z,male_vraiment_flat_199.wav,1,True,1673,63,MASCULIN,2,0.142086,-136.256691
01111960,58,1,2024-03-04T12:39:01.724Z,male_vraiment_flat_199.wav,1,True,1673,63,MASCULIN,3,0.213129,20.654546
01111960,58,1,2024-03-04T12:39:01.724Z,male_vraiment_flat_199.wav,1,True,1673,63,MASCULIN,4,0.284172,41.179386
01111960,58,1,2024-03-04T12:39:01.724Z,male_vraiment_flat_199.wav,1,True,1673,63,MASCULIN,5,0.355215,1.343346
01111960,58,1,2024-03-04T12:39:01.724Z,male_vraiment_flat_199.wav,1,True,1673,63,MASCULIN,6,0.426259,140.228288
01111960,59,1,2024-03-04T12:39:01.724Z,male_vraiment_flat_102.wav,0,False,1472,63,MASCULIN,0,0.000000,-40.599677
01111960,59,1,2024-03-04T12:39:01.724Z,male_vraiment_flat_102.wav,0,False,1472,63,MASCULIN,1,0.071043,73.648850
01111960,59,1,2024-03-04T12:39:01.724Z,male_vraiment_flat_102.wav,0,False,1472,63,MASCULIN,2,0.142086,15.923898
01111960,59,1,2024-03-04T12:39:01.724Z,male_vraiment_flat_102.wav,0,False,1472,63,MASCULIN,3,0.213129,-109.098836
01111960,59,1,2024-03-04T12:39:01.724Z,male_vraiment_flat_102.wav,0,False,1472,63,MASCULIN,4,0.284172,134.536605
01111960,59,1,2024-03-04T12:39:01.724Z,male_vraiment_flat_102.wav,0,False,1472,63,MASCULIN,5,0.355215,127.784516
01111960,59,1,2024-03-04T12:39:01.724Z,male_vraiment_flat_102.wav,0,False,1472,63,MASCULIN,6,0.426259,-136.569602
01111960,59,1,2024-03-04T12:39:01.724Z,male_vraiment_flat_94.wav,1,True,1472,63,MASCULIN,0,0.000000,-0.652128
01111960,59,1,2024-03-04T12:39:01.724Z,male_vraiment_flat_94.wav,1,True,1472,63,MASCULIN,1,0.071043,97.860897
01111960,59,1,2024-03-04T12:39:01.724Z,male_vraiment_flat_94.wav,1,True,1472,63,MASCULIN,2,0.142086,48.932214
01111960,59,1,2024-03-04T12:39:01.724Z,male_vraiment_flat_94.wav,1,True,1472,63,MASCULIN,3,0.213129,-23.097711
01111960,59,1,2024-03-04T12:39:01.724Z,male_vraiment_flat_94.wav,1,True,1472,63,MASCULIN,4,0.284172,-47.481676
01111960,59,1,2024-03-04T12:39:01.724Z,male_vraiment_flat_94.wav,1,True,1472,63,MASCULIN,5,0.355215,-120.450621
01111960,59,1,2024-03-04T12:39:01.724Z,male_vraiment_flat_94.wav,1,True,1472,63,MASCULIN,6,0.426259,-116.887604
01111960,60,1,2024-03-04T12:39:01.724Z,male_vraiment_flat_103.wav,0,False,863,63,MASCULIN,0,0.000000,107.674069
01111960,60,1,2024-03-04T12:39:01.724Z,male_vraiment_flat_103.wav,0,False,863,63,MASCULIN,1,0.071043,149.413476
01111960,60,1,2024-03-04T12:39:01.724Z,male_vraiment_flat_103.wav,0,False,863,63,MASCULIN,2,0.142086,-1.049319
01111960,60,1,2024-03-04T12:39:01.724Z,male_vraiment_flat_103.wav,0,False,863,63,MASCULIN,3,0.213129,-7.353867
01111960,60,1,2024-03-04T12:39:01.724Z,male_vraiment_flat_103.wav,0,False,863,63,MASCULIN,4,0.284172,-2.169492
01111960,60,1,2024-03-04T12:39:01.724Z,male_vraiment_flat_103.wav,0,False,863,63,MASCULIN,5,0.355215,-94.854916
01111960,60,1,2024-03-04T12:39:01.724Z,male_vraiment_flat_103.wav,0,False,863,63,MASCULIN,6,0.426259,119.487430
01111960,60,1,2024-03-04T12:39:01.724Z,male_vraiment_flat_130.wav,1,True,863,63,MASCULIN,0,0.000000,-146.057737
01111960,60,1,2024-03-04T12:39:01.724Z,male_vraiment_flat_130.wav,1,True,863,63,MASCULIN,1,0.071043,-49.781911
01111960,60,1,2024-03-04T12:39:01.724Z,male_vraiment_flat_130.wav,1,True,863,63,MASCULIN,2,0.142086,74.893740
01111960,60,1,2024-03-04T12:39:01.724Z,male_vraiment_flat_130.wav,1,True,863,63,MASCULIN,3,0.213129,-14.505163
01111960,60,1,2024-03-04T12:39:01.724Z,male_vraiment_flat_130.wav,1,True,863,63,MASCULIN,4,0.284172,16.979815
01111960,60,1,2024-03-04T12:39:01.724Z,male_vraiment_flat_130.wav,1,True,863,63,MASCULIN,5,0.355215,-66.512052
01111960,60,1,2024-03-04T12:39:01.724Z,male_vraiment_flat_130.wav,1,True,863,63,MASCULIN,6,0.426259,-59.569067
01111960,61,1,2024-03-04T12:39:01.724Z,male_vraiment_flat_189.wav,0,False,672,63,MASCULIN,0,0.000000,53.448621
01111960,61,1,2024-03-04T12:39:01.724Z,male_vraiment_flat_189.wav,0,False,672,63,MASCULIN,1,0.071043,82.292801
01111960,61,1,2024-03-04T12:39:01.724Z,male_vraiment_flat_189.wav,0,False,672,63,MASCULIN,2,0.142086,-89.509706
01111960,61,1,2024-03-04T12:39:01.724Z,male_vraiment_flat_189.wav,0,False,672,63,MASCULIN,3,0.213129,61.203077
01111960,61,1,2024-03-04T12:39:01.724Z,male_vraiment_flat_189.wav,0,False,672,63,MASCULIN,4,0.284172,-64.080431
01111960,61,1,2024-03-04T12:39:01.724Z,male_vraiment_flat_189.wav,0,False,672,63,MASCULIN,5,0.355215,71.408242
01111960,61,1,2024-03-04T12:39:01.724Z,male_vraiment_flat_189.wav,0,False,672,63,MASCULIN,6,0.426259,-96.299976
01111960,61,1,2024-03-04T12:39:01.724Z,male_vraiment_flat_149.wav,1,True,672,63,MASCULIN,0,0.000000,17.402596
01111960,61,1,2024-03-04T12:39:01.724Z,male_vraiment_flat_149.wav,1,True,672,63,MASCULIN,1,0.071043,-44.390985
01111960,61,1,2024-03-04T12:39:01.724Z,male_vraiment_flat_149.wav,1,True,672,63,MASCULIN,2,0.142086,-32.370244
01111960,61,1,2024-03-04T12:39:01.724Z,male_vraiment_flat_149.wav,1,True,672,63,MASCULIN,3,0.213129,33.896100
01111960,61,1,2024-03-04T12:39:01.724Z,male_vraiment_flat_149.wav,1,True,672,63,MASCULIN,4,0.284172,130.098177
01111960,61,1,2024-03-04T12:39:01.724Z,male_vraiment_flat_149.wav,1,True,672,63,MASCULIN,5,0.355215,-117.346579
01111960,61,1,2024-03-04T12:39:01.724Z,male_vraiment_flat_149.wav,1,True,672,63,MASCULIN,6,0.426259,65.375118
01111960,62,1,2024-03-04T12:39:01.724Z,male_vraiment_flat_69.wav,0,False,430,63,MASCULIN,0,0.000000,-3.170538
01111960,62,1,2024-03-04T12:39:01.724Z,male_vraiment_flat_69.wav,0,False,430,63,MASCULIN,1,0.071043,35.318973
01111960,62,1,2024-03-04T12:39:01.724Z,male_vraiment_flat_69.wav,0,False,430,63,MASCULIN,2,0.142086,9.650212
01111960,62,1,2024-03-04T12:39:01.724Z,male_vraiment_flat_69.wav,0,False,430,63,MASCULIN,3,0.213129,140.461686
01111960,62,1,2024-03-04T12:39:01.724Z,male_vraiment_flat_69.wav,0,False,430,63,MASCULIN,4,0.284172,-72.489288
01111960,62,1,2024-03-04T12:39:01.724Z,male_vraiment_flat_69.wav,0,False,430,63,MASCULIN,5,0.355215,-111.567531
01111960,62,1,2024-03-04T12:39:01.724Z,male_vraiment_flat_69.wav,0,False,430,63,MASCULIN,6,0.426259,62.840145
01111960,62,1,2024-03-04T12:39:01.724Z,male_vraiment_flat_99.wav,1,True,430,63,MASCULIN,0,0.000000,-67.009894
01111960,62,1,2024-03-04T12:39:01.724Z,male_vraiment_flat_99.wav,1,True,430,63,MASCULIN,1,0.071043,-124.385437
01111960,62,1,2024-03-04T12:39:01.724Z,male_vraiment_flat_99.wav,1,True,430,63,MASCULIN,2,0.142086,-32.338754
01111960,62,1,2024-03-04T12:39:01.724Z,male_vraiment_flat_99.wav,1,True,430,63,MASCULIN,3,0.213129,-145.840775
01111960,62,1,2024-03-04T12:39:01.724Z,male_vraiment_flat_99.wav,1,True,430,63,MASCULIN,4,0.284172,-6.786611
01111960,62,1,2024-03-04T12:39:01.724Z,male_vraiment_flat_99.wav,1,True,430,63,MASCULIN,5,0.355215,89.278278
01111960,62,1,2024-03-04T12:39:01.724Z,male_vraiment_flat_99.wav,1,True,430,63,MASCULIN,6,0.426259,-47.823672
01111960,63,1,2024-03-04T12:39:01.724Z,male_vraiment_flat_104.wav,0,False,3242,63,MASCULIN,0,0.000000,-70.174686
01111960,63,1,2024-03-04T12:39:01.724Z,male_vraiment_flat_104.wav,0,False,3242,63,MASCULIN,1,0.071043,-64.753986
01111960,63,1,2024-03-04T12:39:01.724Z,male_vraiment_flat_104.wav,0,False,3242,63,MASCULIN,2,0.142086,-116.293490
01111960,63,1,2024-03-04T12:39:01.724Z,male_vraiment_flat_104.wav,0,False,3242,63,MASCULIN,3,0.213129,-63.059369
01111960,63,1,2024-03-04T12:39:01.724Z,male_vraiment_flat_104.wav,0,False,3242,63,MASCULIN,4,0.284172,102.899256
01111960,63,1,2024-03-04T12:39:01.724Z,male_vraiment_flat_104.wav,0,False,3242,63,MASCULIN,5,0.355215,-142.936640
01111960,63,1,2024-03-04T12:39:01.724Z,male_vraiment_flat_104.wav,0,False,3242,63,MASCULIN,6,0.426259,-16.173865
01111960,63,1,2024-03-04T12:39:01.724Z,male_vraiment_flat_180.wav,1,True,3242,63,MASCULIN,0,0.000000,-17.910938
01111960,63,1,2024-03-04T12:39:01.724Z,male_vraiment_flat_180.wav,1,True,3242,63,MASCULIN,1,0.071043,24.825304
01111960,63,1,2024-03-04T12:39:01.724Z,male_vraiment_flat_180.wav,1,True,3242,63,MASCULIN,2,0.142086,-141.305904
01111960,63,1,2024-03-04T12:39:01.724Z,male_vraiment_flat_180.wav,1,True,3242,63,MASCULIN,3,0.213129,39.379988
01111960,63,1,2024-03-04T12:39:01.724Z,male_vraiment_flat_180.wav,1,True,3242,63,MASCULIN,4,0.284172,-132.932424
01111960,63,1,2024-03-04T12:39:01.724Z,male_vraiment_flat_180.wav,1,True,3242,63,MASCULIN,5,0.355215,-6.123363
01111960,63,1,2024-03-04T12:39:01.724Z,male_vraiment_flat_180.wav,1,True,3242,63,MASCULIN,6,0.426259,-0.737662
01111960,64,1,2024-03-04T12:39:01.724Z,male_vraiment_flat_17.wav,0,True,543,63,MASCULIN,0,0.000000,91.198655
01111960,64,1,2024-03-04T12:39:01.724Z,male_vraiment_flat_17.wav,0,True,543,63,MASCULIN,1,0.071043,44.952547
01111960,64,1,2024-03-04T12:39:01.724Z,male_vraiment_flat_17.wav,0,True,543,63,MASCULIN,2,0.142086,-82.852461
01111960,64,1,2024-03-04T12:39:01.724Z,male_vraiment_flat_17.wav,0,True,543,63,MASCULIN,3,0.213129,-89.451177
