subj,trial,block,date,stim,stim_order,response,rt,age,sex,param_index,segment_time,pitch
210968,0,0,2024-02-28T12:15:37.221Z,male_vraiment_flat_159.wav,0,False,10454,55,homme,0,0.000000,-84.088119
210968,0,0,2024-02-28T12:15:37.221Z,male_vraiment_flat_159.wav,0,False,10454,55,homme,1,0.071043,11.677970
210968,0,0,2024-02-28T12:15:37.221Z,male_vraiment_flat_159.wav,0,False,10454,55,homme,2,0.142086,70.948823
210968,0,0,2024-02-28T12:15:37.221Z,male_vraiment_flat_159.wav,0,False,10454,55,homme,3,0.213129,101.030552
210968,0,0,2024-02-28T12:15:37.221Z,male_vraiment_flat_159.wav,0,False,10454,55,homme,4,0.284172,35.233409
210968,0,0,2024-02-28T12:15:37.221Z,male_vraiment_flat_159.wav,0,False,10454,55,homme,5,0.355215,70.014692
210968,0,0,2024-02-28T12:15:37.221Z,male_vraiment_flat_159.wav,0,False,10454,55,homme,6,0.426259,-21.284009
210968,0,0,2024-02-28T12:15:37.221Z,male_vraiment_flat_86.wav,1,True,10454,55,homme,0,0.000000,85.260205
210968,0,0,2024-02-28T12:15:37.221Z,male_vraiment_flat_86.wav,1,True,10454,55,homme,1,0.071043,-4.684566
210968,0,0,2024-02-28T12:15:37.221Z,male_vraiment_flat_86.wav,1,True,10454,55,homme,2,0.142086,133.406345
210968,0,0,2024-02-28T12:15:37.221Z,male_vraiment_flat_86.wav,1,True,10454,55,homme,3,0.213129,110.454503
210968,0,0,2024-02-28T12:15:37.221Z,male_vraiment_flat_86.wav,1,True,10454,55,homme,4,0.284172,38.373367
210968,0,0,2024-02-28T12:15:37.221Z,male_vraiment_flat_86.wav,1,True,10454,55,homme,5,0.355215,75.992097
210968,0,0,2024-02-28T12:15:37.221Z,male_vraiment_flat_86.wav,1,True,10454,55,homme,6,0.426259,-87.651019
210968,1,0,2024-02-28T12:15:37.221Z,male_vraiment_flat_59.wav,0,False,4962,55,homme,0,0.000000,-36.418372
210968,1,0,2024-02-28T12:15:37.221Z,male_vraiment_flat_59.wav,0,False,4962,55,homme,1,0.071043,84.104587
210968,1,0,2024-02-28T12:15:37.221Z,male_vraiment_flat_59.wav,0,False,4962,55,homme,2,0.142086,132.070943
210968,1,0,2024-02-28T12:15:37.221Z,male_vraiment_flat_59.wav,0,False,4962,55,homme,3,0.213129,-36.088233
210968,1,0,2024-02-28T12:15:37.221Z,male_vraiment_flat_59.wav,0,False,4962,55,homme,4,0.284172,-93.351425
210968,1,0,2024-02-28T12:15:37.221Z,male_vraiment_flat_59.wav,0,False,4962,55,homme,5,0.355215,57.665522
210968,1,0,2024-02-28T12:15:37.221Z,male_vraiment_flat_59.wav,0,False,4962,55,homme,6,0.426259,137.323922
210968,1,0,2024-02-28T12:15:37.221Z,male_vraiment_flat_171.wav,1,True,4962,55,homme,0,0.000000,-132.910898
210968,1,0,2024-02-28T12:15:37.221Z,male_vraiment_flat_171.wav,1,True,4962,55,homme,1,0.071043,-40.348113
210968,1,0,2024-02-28T12:15:37.221Z,male_vraiment_flat_171.wav,1,True,4962,55,homme,2,0.142086,-144.469254
210968,1,0,2024-02-28T12:15:37.221Z,male_vraiment_flat_171.wav,1,True,4962,55,homme,3,0.213129,-148.365603
210968,1,0,2024-02-28T12:15:37.221Z,male_vraiment_flat_171.wav,1,True,4962,55,homme,4,0.284172,29.209812
210968,1,0,2024-02-28T12:15:37.221Z,male_vraiment_flat_171.wav,1,True,4962,55,homme,5,0.355215,-68.789467
210968,1,0,2024-02-28T12:15:37.221Z,male_vraiment_flat_171.wav,1,True,4962,55,homme,6,0.426259,116.539457
210968,2,0,2024-02-28T12:15:37.221Z,male_vraiment_flat_23.wav,0,False,3676,55,homme,0,0.000000,27.345676
210968,2,0,2024-02-28T12:15:37.221Z,male_vraiment_flat_23.wav,0,False,3676,55,homme,1,0.071043,118.378449
210968,2,0,2024-02-28T12:15:37.221Z,male_vraiment_flat_23.wav,0,False,3676,55,homme,2,0.142086,35.467907
210968,2,0,2024-02-28T12:15:37.221Z,male_vraiment_flat_23.wav,0,False,3676,55,homme,3,0.213129,-5.979973
210968,2,0,2024-02-28T12:15:37.221Z,male_vraiment_flat_23.wav,0,False,3676,55,homme,4,0.284172,18.578162
210968,2,0,2024-02-28T12:15:37.221Z,male_vraiment_flat_23.wav,0,False,3676,55,homme,5,0.355215,-9.540782
210968,2,0,2024-02-28T12:15:37.221Z,male_vraiment_flat_23.wav,0,False,3676,55,homme,6,0.426259,-13.092534
210968,2,0,2024-02-28T12:15:37.221Z,male_vraiment_flat_2.wav,1,True,3676,55,homme,0,0.000000,-26.280713
210968,2,0,2024-02-28T12:15:37.221Z,male_vraiment_flat_2.wav,1,True,3676,55,homme,1,0.071043,83.932106
210968,2,0,2024-02-28T12:15:37.221Z,male_vraiment_flat_2.wav,1,True,3676,55,homme,2,0.142086,59.369452
210968,2,0,2024-02-28T12:15:37.221Z,male_vraiment_flat_2.wav,1,True,3676,55,homme,3,0.213129,8.881156
210968,2,0,2024-02-28T12:15:37.221Z,male_vraiment_flat_2.wav,1,True,3676,55,homme,4,0.284172,3.498385
210968,2,0,2024-02-28T12:15:37.221Z,male_vraiment_flat_2.wav,1,True,3676,55,homme,5,0.355215,-133.430007
210968,2,0,2024-02-28T12:15:37.221Z,male_vraiment_flat_2.wav,1,True,3676,55,homme,6,0.426259,94.606197
210968,3,0,2024-02-28T12:15:37.221Z,male_vraiment_flat_57.wav,0,True,1078,55,homme,0,0.000000,-38.971396
210968,3,0,2024-02-28T12:15:37.221Z,male_vraiment_flat_57.wav,0,True,1078,55,homme,1,0.071043,127.210639
210968,3,0,2024-02-28T12:15:37.221Z,male_vraiment_flat_57.wav,0,True,1078,55,homme,2,0.142086,-100.465383
210968,3,0,2024-02-28T12:15:37.221Z,male_vraiment_flat_57.wav,0,True,1078,55,homme,3,0.213129,-139.526819
210968,3,0,2024-02-28T12:15:37.221Z,male_vraiment_flat_57.wav,0,True,1078,55,homme,4,0.284172,-149.467980
210968,3,0,2024-02-28T12:15:37.221Z,male_vraiment_flat_57.wav,0,True,1078,55,homme,5,0.355215,-50.432071
210968,3,0,2024-02-28T12:15:37.221Z,male_vraiment_flat_57.wav,0,True,1078,55,homme,6,0.426259,15.305878
210968,3,0,2024-02-28T12:15:37.221Z,male_vraiment_flat_195.wav,1,False,1078,55,homme,0,0.000000,-54.423844
210968,3,0,2024-02-28T12:15:37.221Z,male_vraiment_flat_195.wav,1,False,1078,55,homme,1,0.071043,81.067183
210968,3,0,2024-02-28T12:15:37.221Z,male_vraiment_flat_195.wav,1,False,1078,55,homme,2,0.142086,-60.396049
210968,3,0,2024-02-28T12:15:37.221Z,male_vraiment_flat_195.wav,1,False,1078,55,homme,3,0.213129,-65.685418
210968,3,0,2024-02-28T12:15:37.221Z,male_vraiment_flat_195.wav,1,False,1078,55,homme,4,0.284172,141.607211
210968,3,0,2024-02-28T12:15:37.221Z,male_vraiment_flat_195.wav,1,False,1078,55,homme,5,0.355215,37.879388
210968,3,0,2024-02-28T12:15:37.221Z,male_vraiment_flat_195.wav,1,False,1078,55,homme,6,0.426259,-52.972183
210968,4,0,2024-02-28T12:15:37.221Z,male_vraiment_flat_146.wav,0,False,1633,55,homme,0,0.000000,92.610651
210968,4,0,2024-02-28T12:15:37.221Z,male_vraiment_flat_146.wav,0,False,1633,55,homme,1,0.071043,40.250954
210968,4,0,2024-02-28T12:15:37.221Z,male_vraiment_flat_146.wav,0,False,1633,55,homme,2,0.142086,99.988333
210968,4,0,2024-02-28T12:15:37.221Z,male_vraiment_flat_146.wav,0,False,1633,55,homme,3,0.213129,115.543405
210968,4,0,2024-02-28T12:15:37.221Z,male_vraiment_flat_146.wav,0,False,1633,55,homme,4,0.284172,-3.607960
210968,4,0,2024-02-28T12:15:37.221Z,male_vraiment_flat_146.wav,0,False,1633,55,homme,5,0.355215,-91.494225
210968,4,0,2024-02-28T12:15:37.221Z,male_vraiment_flat_146.wav,0,False,1633,55,homme,6,0.426259,-109.708123
210968,4,0,2024-02-28T12:15:37.221Z,male_vraiment_flat_87.wav,1,True,1633,55,homme,0,0.000000,123.541183
210968,4,0,2024-02-28T12:15:37.221Z,male_vraiment_flat_87.wav,1,True,1633,55,homme,1,0.071043,-79.641893
210968,4,0,2024-02-28T12:15:37.221Z,male_vraiment_flat_87.wav,1,True,1633,55,homme,2,0.142086,-129.036775
210968,4,0,2024-02-28T12:15:37.221Z,male_vraiment_flat_87.wav,1,True,1633,55,homme,3,0.213129,-12.372422
210968,4,0,2024-02-28T12:15:37.221Z,male_vraiment_flat_87.wav,1,True,1633,55,homme,4,0.284172,47.099802
210968,4,0,2024-02-28T12:15:37.221Z,male_vraiment_flat_87.wav,1,True,1633,55,homme,5,0.355215,133.796504
210968,4,0,2024-02-28T12:15:37.221Z,male_vraiment_flat_87.wav,1,True,1633,55,homme,6,0.426259,125.051187
210968,5,0,2024-02-28T12:15:37.221Z,male_vraiment_flat_197.wav,0,True,2247,55,homme,0,0.000000,7.012988
210968,5,0,2024-02-28T12:15:37.221Z,male_vraiment_flat_197.wav,0,True,2247,55,homme,1,0.071043,64.551185
210968,5,0,2024-02-28T12:15:37.221Z,male_vraiment_flat_197.wav,0,True,2247,55,homme,2,0.142086,-65.392523
210968,5,0,2024-02-28T12:15:37.221Z,male_vraiment_flat_197.wav,0,True,2247,55,homme,3,0.213129,18.180118
210968,5,0,2024-02-28T12:15:37.221Z,male_vraiment_flat_197.wav,0,True,2247,55,homme,4,0.284172,-30.775220
210968,5,0,2024-02-28T12:15:37.221Z,male_vraiment_flat_197.wav,0,True,2247,55,homme,5,0.355215,95.802549
210968,5,0,2024-02-28T12:15:37.221Z,male_vraiment_flat_197.wav,0,True,2247,55,homme,6,0.426259,-129.373786
210968,5,0,2024-02-28T12:15:37.221Z,male_vraiment_flat_138.wav,1,False,2247,55,homme,0,0.000000,-29.536298
210968,5,0,2024-02-28T12:15:37.221Z,male_vraiment_flat_138.wav,1,False,2247,55,homme,1,0.071043,90.685935
210968,5,0,2024-02-28T12:15:37.221Z,male_vraiment_flat_138.wav,1,False,2247,55,homme,2,0.142086,-77.044346
210968,5,0,2024-02-28T12:15:37.221Z,male_vraiment_flat_138.wav,1,False,2247,55,homme,3,0.213129,-75.264885
210968,5,0,2024-02-28T12:15:37.221Z,male_vraiment_flat_138.wav,1,False,2247,55,homme,4,0.284172,-129.490236
210968,5,0,2024-02-28T12:15:37.221Z,male_vraiment_flat_138.wav,1,False,2247,55,homme,5,0.355215,-48.940612
210968,5,0,2024-02-28T12:15:37.221Z,male_vraiment_flat_138.wav,1,False,2247,55,homme,6,0.426259,-95.647001
210968,6,0,2024-02-28T12:15:37.221Z,male_vraiment_flat_149.wav,0,False,2321,55,homme,0,0.000000,17.402596
210968,6,0,2024-02-28T12:15:37.221Z,male_vraiment_flat_149.wav,0,False,2321,55,homme,1,0.071043,-44.390985
210968,6,0,2024-02-28T12:15:37.221Z,male_vraiment_flat_149.wav,0,False,2321,55,homme,2,0.142086,-32.370244
210968,6,0,2024-02-28T12:15:37.221Z,male_vraiment_flat_149.wav,0,False,2321,55,homme,3,0.213129,33.896100
210968,6,0,2024-02-28T12:15:37.221Z,male_vraiment_flat_149.wav,0,False,2321,55,homme,4,0.284172,130.098177
210968,6,0,2024-02-28T12:15:37.221Z,male_vraiment_flat_149.wav,0,False,2321,55,homme,5,0.355215,-117.346579
210968,6,0,2024-02-28T12:15:37.221Z,male_vraiment_flat_149.wav,0,False,2321,55,homme,6,0.426259,65.375118
210968,6,0,2024-02-28T12:15:37.221Z,male_vraiment_flat_0.wav,1,True,2321,55,homme,0,0.000000,9.896041
210968,6,0,2024-02-28T12:15:37.221Z,male_vraiment_flat_0.wav,1,True,2321,55,homme,1,0.071043,101.528400
210968,6,0,2024-02-28T12:15:37.221Z,male_vraiment_flat_0.wav,1,True,2321,55,homme,2,0.142086,-68.097850
210968,6,0,2024-02-28T12:15:37.221Z,male_vraiment_flat_0.wav,1,True,2321,55,homme,3,0.213129,-142.658303
210968,6,0,2024-02-28T12:15:37.221Z,male_vraiment_flat_0.wav,1,True,2321,55,homme,4,0.284172,-120.248224
210968,6,0,2024-02-28T12:15:37.221Z,male_vraiment_flat_0.wav,1,True,2321,55,homme,5,0.355215,31.293845
210968,6,0,2024-02-28T12:15:37.221Z,male_vraiment_flat_0.wav,1,True,2321,55,homme,6,0.426259,-137.250528
210968,7,0,2024-02-28T12:15:37.221Z,male_vraiment_flat_160.wav,0,True,1767,55,homme,0,0.000000,21.342691
210968,7,0,2024-02-28T12:15:37.221Z,male_vraiment_flat_160.wav,0,True,1767,55,homme,1,0.071043,-76.780347
210968,7,0,2024-02-28T12:15:37.221Z,male_vraiment_flat_160.wav,0,True,1767,55,homme,2,0.142086,-127.843887
210968,7,0,2024-02-28T12:15:37.221Z,male_vraiment_flat_160.wav,0,True,1767,55,homme,3,0.213129,-126.126744
210968,7,0,2024-02-28T12:15:37.221Z,male_vraiment_flat_160.wav,0,True,1767,55,homme,4,0.284172,-33.722090
210968,7,0,2024-02-28T12:15:37.221Z,male_vraiment_flat_160.wav,0,True,1767,55,homme,5,0.355215,18.600024
210968,7,0,2024-02-28T12:15:37.221Z,male_vraiment_flat_160.wav,0,True,1767,55,homme,6,0.426259,-57.157597
210968,7,0,2024-02-28T12:15:37.221Z,male_vraiment_flat_63.wav,1,False,1767,55,homme,0,0.000000,106.489910
210968,7,0,2024-02-28T12:15:37.221Z,male_vraiment_flat_63.wav,1,False,1767,55,homme,1,0.071043,-87.090173
210968,7,0,2024-02-28T12:15:37.221Z,male_vraiment_flat_63.wav,1,False,1767,55,homme,2,0.142086,63.865444
210968,7,0,2024-02-28T12:15:37.221Z,male_vraiment_flat_63.wav,1,False,1767,55,homme,3,0.213129,-130.111458
210968,7,0,2024-02-28T12:15:37.221Z,male_vraiment_flat_63.wav,1,False,1767,55,homme,4,0.284172,45.870405
210968,7,0,2024-02-28T12:15:37.221Z,male_vraiment_flat_63.wav,1,False,1767,55,homme,5,0.355215,-60.104934
210968,7,0,2024-02-28T12:15:37.221Z,male_vraiment_flat_63.wav,1,False,1767,55,homme,6,0.426259,67.674520
210968,8,0,2024-02-28T12:15:37.221Z,male_vraiment_flat_124.wav,0,False,1472,55,homme,0,0.000000,-7.963711
210968,8,0,2024-02-28T12:15:37.221Z,male_vraiment_flat_124.wav,0,False,1472,55,homme,1,0.071043,-56.081883
210968,8,0,2024-02-28T12:15:37.221Z,male_vraiment_flat_124.wav,0,False,1472,55,homme,2,0.142086,-78.115299
210968,8,0,2024-02-28T12:15:37.221Z,male_vraiment_flat_124.wav,0,False,1472,55,homme,3,0.213129,-24.811935
210968,8,0,2024-02-28T12:15:37.221Z,male_vraiment_flat_124.wav,0,False,1472,55,homme,4,0.284172,-9.003272
210968,8,0,2024-02-28T12:15:37.221Z,male_vraiment_flat_124.wav,0,False,1472,55,homme,5,0.355215,13.712214
210968,8,0,2024-02-28T12:15:37.221Z,male_vraiment_flat_124.wav,0,False,1472,55,homme,6,0.426259,140.048390
210968,8,0,2024-02-28T12:15:37.221Z,male_vraiment_flat_46.wav,1,True,1472,55,homme,0,0.000000,48.231571
210968,8,0,2024-02-28T12:15:37.221Z,male_vraiment_flat_46.wav,1,True,1472,55,homme,1,0.071043,-13.386862
210968,8,0,2024-02-28T12:15:37.221Z,male_vraiment_flat_46.wav,1,True,1472,55,homme,2,0.142086,107.175029
210968,8,0,2024-02-28T12:15:37.221Z,male_vraiment_flat_46.wav,1,True,1472,55,homme,3,0.213129,24.056117
210968,8,0,2024-02-28T12:15:37.221Z,male_vraiment_flat_46.wav,1,True,1472,55,homme,4,0.284172,72.951541
210968,8,0,2024-02-28T12:15:37.221Z,male_vraiment_flat_46.wav,1,True,1472,55,homme,5,0.355215,123.539508
210968,8,0,2024-02-28T12:15:37.221Z,male_vraiment_flat_46.wav,1,True,1472,55,homme,6,0.426259,50.410407
210968,9,0,2024-02-28T12:15:37.221Z,male_vraiment_flat_123.wav,0,True,1548,55,homme,0,0.000000,24.338681
210968,9,0,2024-02-28T12:15:37.221Z,male_vraiment_flat_123.wav,0,True,1548,55,homme,1,0.071043,-76.255610
210968,9,0,2024-02-28T12:15:37.221Z,male_vraiment_flat_123.wav,0,True,1548,55,homme,2,0.142086,16.829571
210968,9,0,2024-02-28T12:15:37.221Z,male_vraiment_flat_123.wav,0,True,1548,55,homme,3,0.213129,3.085792
210968,9,0,2024-02-28T12:15:37.221Z,male_vraiment_flat_123.wav,0,True,1548,55,homme,4,0.284172,81.658793
210968,9,0,2024-02-28T12:15:37.221Z,male_vraiment_flat_123.wav,0,True,1548,55,homme,5,0.355215,73.758354
210968,9,0,2024-02-28T12:15:37.221Z,male_vraiment_flat_123.wav,0,True,1548,55,homme,6,0.426259,103.644220
210968,9,0,2024-02-28T12:15:37.221Z,male_vraiment_flat_82.wav,1,False,1548,55,homme,0,0.000000,14.171085
210968,9,0,2024-02-28T12:15:37.221Z,male_vraiment_flat_82.wav,1,False,1548,55,homme,1,0.071043,-68.153896
210968,9,0,2024-02-28T12:15:37.221Z,male_vraiment_flat_82.wav,1,False,1548,55,homme,2,0.142086,-24.679362
210968,9,0,2024-02-28T12:15:37.221Z,male_vraiment_flat_82.wav,1,False,1548,55,homme,3,0.213129,-58.364866
210968,9,0,2024-02-28T12:15:37.221Z,male_vraiment_flat_82.wav,1,False,1548,55,homme,4,0.284172,-35.694955
210968,9,0,2024-02-28T12:15:37.221Z,male_vraiment_flat_82.wav,1,False,1548,55,homme,5,0.355215,-79.701050
210968,9,0,2024-02-28T12:15:37.221Z,male_vraiment_flat_82.wav,1,False,1548,55,homme,6,0.426259,-70.571097
210968,10,0,2024-02-28T12:15:37.221Z,male_vraiment_flat_178.wav,0,False,1916,55,homme,0,0.000000,-112.052653
210968,10,0,2024-02-28T12:15:37.221Z,male_vraiment_flat_178.wav,0,False,1916,55,homme,1,0.071043,-21.378049
210968,10,0,2024-02-28T12:15:37.221Z,male_vraiment_flat_178.wav,0,False,1916,55,homme,2,0.142086,71.395950
210968,10,0,2024-02-28T12:15:37.221Z,male_vraiment_flat_178.wav,0,False,1916,55,homme,3,0.213129,66.817796
210968,10,0,2024-02-28T12:15:37.221Z,male_vraiment_flat_178.wav,0,False,1916,55,homme,4,0.284172,25.203350
210968,10,0,2024-02-28T12:15:37.221Z,male_vraiment_flat_178.wav,0,False,1916,55,homme,5,0.355215,-37.010641
210968,10,0,2024-02-28T12:15:37.221Z,male_vraiment_flat_178.wav,0,False,1916,55,homme,6,0.426259,88.032365
210968,10,0,2024-02-28T12:15:37.221Z,male_vraiment_flat_18.wav,1,True,1916,55,homme,0,0.000000,-126.424441
210968,10,0,2024-02-28T12:15:37.221Z,male_vraiment_flat_18.wav,1,True,1916,55,homme,1,0.071043,-57.286238
210968,10,0,2024-02-28T12:15:37.221Z,male_vraiment_flat_18.wav,1,True,1916,55,homme,2,0.142086,14.494248
210968,10,0,2024-02-28T12:15:37.221Z,male_vraiment_flat_18.wav,1,True,1916,55,homme,3,0.213129,11.325267
210968,10,0,2024-02-28T12:15:37.221Z,male_vraiment_flat_18.wav,1,True,1916,55,homme,4,0.284172,-20.022709
210968,10,0,2024-02-28T12:15:37.221Z,male_vraiment_flat_18.wav,1,True,1916,55,homme,5,0.355215,-67.838631
210968,10,0,2024-02-28T12:15:37.221Z,male_vraiment_flat_18.wav,1,True,1916,55,homme,6,0.426259,-75.619086
210968,11,0,2024-02-28T12:15:37.221Z,male_vraiment_flat_67.wav,0,False,1868,55,homme,0,0.000000,3.293259
210968,11,0,2024-02-28T12:15:37.221Z,male_vraiment_flat_67.wav,0,False,1868,55,homme,1,0.071043,-46.547477
210968,11,0,2024-02-28T12:15:37.221Z,male_vraiment_flat_67.wav,0,False,1868,55,homme,2,0.142086,54.624069
210968,11,0,2024-02-28T12:15:37.221Z,male_vraiment_flat_67.wav,0,False,1868,55,homme,3,0.213129,-46.025939
210968,11,0,2024-02-28T12:15:37.221Z,male_vraiment_flat_67.wav,0,False,1868,55,homme,4,0.284172,70.704507
210968,11,0,2024-02-28T12:15:37.221Z,male_vraiment_flat_67.wav,0,False,1868,55,homme,5,0.355215,-47.199237
210968,11,0,2024-02-28T12:15:37.221Z,male_vraiment_flat_67.wav,0,False,1868,55,homme,6,0.426259,147.575842
210968,11,0,2024-02-28T12:15:37.221Z,male_vraiment_flat_100.wav,1,True,1868,55,homme,0,0.000000,43.543409
210968,11,0,2024-02-28T12:15:37.221Z,male_vraiment_flat_100.wav,1,True,1868,55,homme,1,0.071043,103.015481
210968,11,0,2024-02-28T12:15:37.221Z,male_vraiment_flat_100.wav,1,True,1868,55,homme,2,0.142086,72.119204
210968,11,0,2024-02-28T12:15:37.221Z,male_vraiment_flat_100.wav,1,True,1868,55,homme,3,0.213129,-134.244223
210968,11,0,2024-02-28T12:15:37.221Z,male_vraiment_flat_100.wav,1,True,1868,55,homme,4,0.284172,118.896008
210968,11,0,2024-02-28T12:15:37.221Z,male_vraiment_flat_100.wav,1,True,1868,55,homme,5,0.355215,-31.136245
210968,11,0,2024-02-28T12:15:37.221Z,male_vraiment_flat_100.wav,1,True,1868,55,homme,6,0.426259,41.834207
210968,12,0,2024-02-28T12:15:37.221Z,male_vraiment_flat_131.wav,0,True,1740,55,homme,0,0.000000,107.175705
210968,12,0,2024-02-28T12:15:37.221Z,male_vraiment_flat_131.wav,0,True,1740,55,homme,1,0.071043,81.997533
210968,12,0,2024-02-28T12:15:37.221Z,male_vraiment_flat_131.wav,0,True,1740,55,homme,2,0.142086,53.236564
210968,12,0,2024-02-28T12:15:37.221Z,male_vraiment_flat_131.wav,0,True,1740,55,homme,3,0.213129,108.962563
210968,12,0,2024-02-28T12:15:37.221Z,male_vraiment_flat_131.wav,0,True,1740,55,homme,4,0.284172,-22.910156
210968,12,0,2024-02-28T12:15:37.221Z,male_vraiment_flat_131.wav,0,True,1740,55,homme,5,0.355215,133.743101
210968,12,0,2024-02-28T12:15:37.221Z,male_vraiment_flat_131.wav,0,True,1740,55,homme,6,0.426259,98.652547
210968,12,0,2024-02-28T12:15:37.221Z,male_vraiment_flat_114.wav,1,False,1740,55,homme,0,0.000000,-107.614700
210968,12,0,2024-02-28T12:15:37.221Z,male_vraiment_flat_114.wav,1,False,1740,55,homme,1,0.071043,-121.606705
210968,12,0,2024-02-28T12:15:37.221Z,male_vraiment_flat_114.wav,1,False,1740,55,homme,2,0.142086,26.820871
210968,12,0,2024-02-28T12:15:37.221Z,male_vraiment_flat_114.wav,1,False,1740,55,homme,3,0.213129,42.957584
210968,12,0,2024-02-28T12:15:37.221Z,male_vraiment_flat_114.wav,1,False,1740,55,homme,4,0.284172,-48.053802
210968,12,0,2024-02-28T12:15:37.221Z,male_vraiment_flat_114.wav,1,False,1740,55,homme,5,0.355215,-10.474627
210968,12,0,2024-02-28T12:15:37.221Z,male_vraiment_flat_114.wav,1,False,1740,55,homme,6,0.426259,-131.069216
210968,13,0,2024-02-28T12:15:37.221Z,male_vraiment_flat_170.wav,0,True,785,55,homme,0,0.000000,88.489327
210968,13,0,2024-02-28T12:15:37.221Z,male_vraiment_flat_170.wav,0,True,785,55,homme,1,0.071043,-76.759591
210968,13,0,2024-02-28T12:15:37.221Z,male_vraiment_flat_170.wav,0,True,785,55,homme,2,0.142086,131.535458
210968,13,0,2024-02-28T12:15:37.221Z,male_vraiment_flat_170.wav,0,True,785,55,homme,3,0.213129,-66.304272
210968,13,0,2024-02-28T12:15:37.221Z,male_vraiment_flat_170.wav,0,True,785,55,homme,4,0.284172,82.842237
210968,13,0,2024-02-28T12:15:37.221Z,male_vraiment_flat_170.wav,0,True,785,55,homme,5,0.355215,39.682087
210968,13,0,2024-02-28T12:15:37.221Z,male_vraiment_flat_170.wav,0,True,785,55,homme,6,0.426259,-39.313076
210968,13,0,2024-02-28T12:15:37.221Z,male_vraiment_flat_70.wav,1,False,785,55,homme,0,0.000000,-95.640606
210968,13,0,2024-02-28T12:15:37.221Z,male_vraiment_flat_70.wav,1,False,785,55,homme,1,0.071043,17.584667
210968,13,0,2024-02-28T12:15:37.221Z,male_vraiment_flat_70.wav,1,False,785,55,homme,2,0.142086,9.439432
210968,13,0,2024-02-28T12:15:37.221Z,male_vraiment_flat_70.wav,1,False,785,55,homme,3,0.213129,26.204853
210968,13,0,2024-02-28T12:15:37.221Z,male_vraiment_flat_70.wav,1,False,785,55,homme,4,0.284172,19.735476
210968,13,0,2024-02-28T12:15:37.221Z,male_vraiment_flat_70.wav,1,False,785,55,homme,5,0.355215,-45.465161
210968,13,0,2024-02-28T12:15:37.221Z,male_vraiment_flat_70.wav,1,False,785,55,homme,6,0.426259,24.901866
210968,14,0,2024-02-28T12:15:37.221Z,male_vraiment_flat_1.wav,0,False,856,55,homme,0,0.000000,-87.527114
210968,14,0,2024-02-28T12:15:37.221Z,male_vraiment_flat_1.wav,0,False,856,55,homme,1,0.071043,-24.885537
210968,14,0,2024-02-28T12:15:37.221Z,male_vraiment_flat_1.wav,0,False,856,55,homme,2,0.142086,25.492299
210968,14,0,2024-02-28T12:15:37.221Z,male_vraiment_flat_1.wav,0,False,856,55,homme,3,0.213129,-85.109295
210968,14,0,2024-02-28T12:15:37.221Z,male_vraiment_flat_1.wav,0,False,856,55,homme,4,0.284172,41.982644
210968,14,0,2024-02-28T12:15:37.221Z,male_vraiment_flat_1.wav,0,False,856,55,homme,5,0.355215,-147.448489
210968,14,0,2024-02-28T12:15:37.221Z,male_vraiment_flat_1.wav,0,False,856,55,homme,6,0.426259,3.412386
210968,14,0,2024-02-28T12:15:37.221Z,male_vraiment_flat_35.wav,1,True,856,55,homme,0,0.000000,-80.907759
210968,14,0,2024-02-28T12:15:37.221Z,male_vraiment_flat_35.wav,1,True,856,55,homme,1,0.071043,-44.446048
210968,14,0,2024-02-28T12:15:37.221Z,male_vraiment_flat_35.wav,1,True,856,55,homme,2,0.142086,-51.579277
210968,14,0,2024-02-28T12:15:37.221Z,male_vraiment_flat_35.wav,1,True,856,55,homme,3,0.213129,-66.764099
210968,14,0,2024-02-28T12:15:37.221Z,male_vraiment_flat_35.wav,1,True,856,55,homme,4,0.284172,-35.478686
210968,14,0,2024-02-28T12:15:37.221Z,male_vraiment_flat_35.wav,1,True,856,55,homme,5,0.355215,-86.823570
210968,14,0,2024-02-28T12:15:37.221Z,male_vraiment_flat_35.wav,1,True,856,55,homme,6,0.426259,26.550026
210968,15,0,2024-02-28T12:15:37.221Z,male_vraiment_flat_112.wav,0,True,780,55,homme,0,0.000000,40.318333
210968,15,0,2024-02-28T12:15:37.221Z,male_vraiment_flat_112.wav,0,True,780,55,homme,1,0.071043,28.779991
210968,15,0,2024-02-28T12:15:37.221Z,male_vraiment_flat_112.wav,0,True,780,55,homme,2,0.142086,-86.990654
210968,15,0,2024-02-28T12:15:37.221Z,male_vraiment_flat_112.wav,0,True,780,55,homme,3,0.213129,-136.064498
210968,15,0,2024-02-28T12:15:37.221Z,male_vraiment_flat_112.wav,0,True,780,55,homme,4,0.284172,89.286191
210968,15,0,2024-02-28T12:15:37.221Z,male_vraiment_flat_112.wav,0,True,780,55,homme,5,0.355215,99.616935
210968,15,0,2024-02-28T12:15:37.221Z,male_vraiment_flat_112.wav,0,True,780,55,homme,6,0.426259,-61.253639
210968,15,0,2024-02-28T12:15:37.221Z,male_vraiment_flat_161.wav,1,False,780,55,homme,0,0.000000,108.108554
210968,15,0,2024-02-28T12:15:37.221Z,male_vraiment_flat_161.wav,1,False,780,55,homme,1,0.071043,47.804173
210968,15,0,2024-02-28T12:15:37.221Z,male_vraiment_flat_161.wav,1,False,780,55,homme,2,0.142086,-38.721105
210968,15,0,2024-02-28T12:15:37.221Z,male_vraiment_flat_161.wav,1,False,780,55,homme,3,0.213129,108.595174
210968,15,0,2024-02-28T12:15:37.221Z,male_vraiment_flat_161.wav,1,False,780,55,homme,4,0.284172,94.751032
210968,15,0,2024-02-28T12:15:37.221Z,male_vraiment_flat_161.wav,1,False,780,55,homme,5,0.355215,-22.399732
210968,15,0,2024-02-28T12:15:37.221Z,male_vraiment_flat_161.wav,1,False,780,55,homme,6,0.426259,88.139884
210968,16,0,2024-02-28T12:15:37.221Z,male_vraiment_flat_121.wav,0,True,493,55,homme,0,0.000000,-58.637887
210968,16,0,2024-02-28T12:15:37.221Z,male_vraiment_flat_121.wav,0,True,493,55,homme,1,0.071043,-104.347196
210968,16,0,2024-02-28T12:15:37.221Z,male_vraiment_flat_121.wav,0,True,493,55,homme,2,0.142086,149.905377
210968,16,0,2024-02-28T12:15:37.221Z,male_vraiment_flat_121.wav,0,True,493,55,homme,3,0.213129,-98.681631
210968,16,0,2024-02-28T12:15:37.221Z,male_vraiment_flat_121.wav,0,True,493,55,homme,4,0.284172,-147.265274
210968,16,0,2024-02-28T12:15:37.221Z,male_vraiment_flat_121.wav,0,True,493,55,homme,5,0.355215,64.587538
210968,16,0,2024-02-28T12:15:37.221Z,male_vraiment_flat_121.wav,0,True,493,55,homme,6,0.426259,26.674605
210968,16,0,2024-02-28T12:15:37.221Z,male_vraiment_flat_92.wav,1,False,493,55,homme,0,0.000000,46.869845
210968,16,0,2024-02-28T12:15:37.221Z,male_vraiment_flat_92.wav,1,False,493,55,homme,1,0.071043,-22.303854
210968,16,0,2024-02-28T12:15:37.221Z,male_vraiment_flat_92.wav,1,False,493,55,homme,2,0.142086,54.218629
210968,16,0,2024-02-28T12:15:37.221Z,male_vraiment_flat_92.wav,1,False,493,55,homme,3,0.213129,-37.706610
210968,16,0,2024-02-28T12:15:37.221Z,male_vraiment_flat_92.wav,1,False,493,55,homme,4,0.284172,48.467677
210968,16,0,2024-02-28T12:15:37.221Z,male_vraiment_flat_92.wav,1,False,493,55,homme,5,0.355215,-36.671620
210968,16,0,2024-02-28T12:15:37.221Z,male_vraiment_flat_92.wav,1,False,493,55,homme,6,0.426259,-103.238186
210968,17,0,2024-02-28T12:15:37.221Z,male_vraiment_flat_199.wav,0,True,1225,55,homme,0,0.000000,-30.664010
210968,17,0,2024-02-28T12:15:37.221Z,male_vraiment_flat_199.wav,0,True,1225,55,homme,1,0.071043,2.060872
210968,17,0,2024-02-28T12:15:37.221Z,male_vraiment_flat_199.wav,0,True,1225,55,homme,2,0.142086,-136.256691
210968,17,0,2024-02-28T12:15:37.221Z,male_vraiment_flat_199.wav,0,True,1225,55,homme,3,0.213129,20.654546
210968,17,0,2024-02-28T12:15:37.221Z,male_vraiment_flat_199.wav,0,True,1225,55,homme,4,0.284172,41.179386
210968,17,0,2024-02-28T12:15:37.221Z,male_vraiment_flat_199.wav,0,True,1225,55,homme,5,0.355215,1.343346
210968,17,0,2024-02-28T12:15:37.221Z,male_vraiment_flat_199.wav,0,True,1225,55,homme,6,0.426259,140.228288
210968,17,0,2024-02-28T12:15:37.221Z,male_vraiment_flat_167.wav,1,False,1225,55,homme,0,0.000000,-97.244470
210968,17,0,2024-02-28T12:15:37.221Z,male_vraiment_flat_167.wav,1,False,1225,55,homme,1,0.071043,55.519403
210968,17,0,2024-02-28T12:15:37.221Z,male_vraiment_flat_167.wav,1,False,1225,55,homme,2,0.142086,-125.285214
210968,17,0,2024-02-28T12:15:37.221Z,male_vraiment_flat_167.wav,1,False,1225,55,homme,3,0.213129,-87.843825
210968,17,0,2024-02-28T12:15:37.221Z,male_vraiment_flat_167.wav,1,False,1225,55,homme,4,0.284172,-127.750284
210968,17,0,2024-02-28T12:15:37.221Z,male_vraiment_flat_167.wav,1,False,1225,55,homme,5,0.355215,-93.631866
210968,17,0,2024-02-28T12:15:37.221Z,male_vraiment_flat_167.wav,1,False,1225,55,homme,6,0.426259,6.691804
210968,18,0,2024-02-28T12:15:37.221Z,male_vraiment_flat_45.wav,0,True,599,55,homme,0,0.000000,-108.869549
210968,18,0,2024-02-28T12:15:37.221Z,male_vraiment_flat_45.wav,0,True,599,55,homme,1,0.071043,-22.660114
210968,18,0,2024-02-28T12:15:37.221Z,male_vraiment_flat_45.wav,0,True,599,55,homme,2,0.142086,-141.096375
210968,18,0,2024-02-28T12:15:37.221Z,male_vraiment_flat_45.wav,0,True,599,55,homme,3,0.213129,-24.815065
210968,18,0,2024-02-28T12:15:37.221Z,male_vraiment_flat_45.wav,0,True,599,55,homme,4,0.284172,102.804681
210968,18,0,2024-02-28T12:15:37.221Z,male_vraiment_flat_45.wav,0,True,599,55,homme,5,0.355215,112.365201
210968,18,0,2024-02-28T12:15:37.221Z,male_vraiment_flat_45.wav,0,True,599,55,homme,6,0.426259,95.196821
210968,18,0,2024-02-28T12:15:37.221Z,male_vraiment_flat_190.wav,1,False,599,55,homme,0,0.000000,-135.472764
210968,18,0,2024-02-28T12:15:37.221Z,male_vraiment_flat_190.wav,1,False,599,55,homme,1,0.071043,-16.311165
210968,18,0,2024-02-28T12:15:37.221Z,male_vraiment_flat_190.wav,1,False,599,55,homme,2,0.142086,-108.166759
210968,18,0,2024-02-28T12:15:37.221Z,male_vraiment_flat_190.wav,1,False,599,55,homme,3,0.213129,-73.778410
210968,18,0,2024-02-28T12:15:37.221Z,male_vraiment_flat_190.wav,1,False,599,55,homme,4,0.284172,-109.839915
210968,18,0,2024-02-28T12:15:37.221Z,male_vraiment_flat_190.wav,1,False,599,55,homme,5,0.355215,2.895785
210968,18,0,2024-02-28T12:15:37.221Z,male_vraiment_flat_190.wav,1,False,599,55,homme,6,0.426259,14.515822
210968,19,0,2024-02-28T12:15:37.221Z,male_vraiment_flat_198.wav,0,False,1067,55,homme,0,0.000000,-103.630506
210968,19,0,2024-02-28T12:15:37.221Z,male_vraiment_flat_198.wav,0,False,1067,55,homme,1,0.071043,-84.165473
210968,19,0,2024-02-28T12:15:37.221Z,male_vraiment_flat_198.wav,0,False,1067,55,homme,2,0.142086,-14.577431
210968,19,0,2024-02-28T12:15:37.221Z,male_vraiment_flat_198.wav,0,False,1067,55,homme,3,0.213129,28.146235
210968,19,0,2024-02-28T12:15:37.221Z,male_vraiment_flat_198.wav,0,False,1067,55,homme,4,0.284172,-80.575165
210968,19,0,2024-02-28T12:15:37.221Z,male_vraiment_flat_198.wav,0,False,1067,55,homme,5,0.355215,-32.118902
210968,19,0,2024-02-28T12:15:37.221Z,male_vraiment_flat_198.wav,0,False,1067,55,homme,6,0.426259,78.303148
210968,19,0,2024-02-28T12:15:37.221Z,male_vraiment_flat_25.wav,1,True,1067,55,homme,0,0.000000,-129.422108
210968,19,0,2024-02-28T12:15:37.221Z,male_vraiment_flat_25.wav,1,True,1067,55,homme,1,0.071043,-12.331663
210968,19,0,2024-02-28T12:15:37.221Z,male_vraiment_flat_25.wav,1,True,1067,55,homme,2,0.142086,-97.065740
210968,19,0,2024-02-28T12:15:37.221Z,male_vraiment_flat_25.wav,1,True,1067,55,homme,3,0.213129,-6.253122
210968,19,0,2024-02-28T12:15:37.221Z,male_vraiment_flat_25.wav,1,True,1067,55,homme,4,0.284172,31.933743
210968,19,0,2024-02-28T12:15:37.221Z,male_vraiment_flat_25.wav,1,True,1067,55,homme,5,0.355215,-58.415946
210968,19,0,2024-02-28T12:15:37.221Z,male_vraiment_flat_25.wav,1,True,1067,55,homme,6,0.426259,117.143598
210968,20,0,2024-02-28T12:15:37.221Z,male_vraiment_flat_74.wav,0,True,382,55,homme,0,0.000000,71.293232
210968,20,0,2024-02-28T12:15:37.221Z,male_vraiment_flat_74.wav,0,True,382,55,homme,1,0.071043,32.860121
210968,20,0,2024-02-28T12:15:37.221Z,male_vraiment_flat_74.wav,0,True,382,55,homme,2,0.142086,-85.825735
210968,20,0,2024-02-28T12:15:37.221Z,male_vraiment_flat_74.wav,0,True,382,55,homme,3,0.213129,70.628085
210968,20,0,2024-02-28T12:15:37.221Z,male_vraiment_flat_74.wav,0,True,382,55,homme,4,0.284172,126.928038
210968,20,0,2024-02-28T12:15:37.221Z,male_vraiment_flat_74.wav,0,True,382,55,homme,5,0.355215,120.083362
210968,20,0,2024-02-28T12:15:37.221Z,male_vraiment_flat_74.wav,0,True,382,55,homme,6,0.426259,92.661740
210968,20,0,2024-02-28T12:15:37.221Z,male_vraiment_flat_88.wav,1,False,382,55,homme,0,0.000000,-104.432443
210968,20,0,2024-02-28T12:15:37.221Z,male_vraiment_flat_88.wav,1,False,382,55,homme,1,0.071043,71.901933
210968,20,0,2024-02-28T12:15:37.221Z,male_vraiment_flat_88.wav,1,False,382,55,homme,2,0.142086,62.017491
210968,20,0,2024-02-28T12:15:37.221Z,male_vraiment_flat_88.wav,1,False,382,55,homme,3,0.213129,-148.109936
210968,20,0,2024-02-28T12:15:37.221Z,male_vraiment_flat_88.wav,1,False,382,55,homme,4,0.284172,21.087169
210968,20,0,2024-02-28T12:15:37.221Z,male_vraiment_flat_88.wav,1,False,382,55,homme,5,0.355215,98.793360
210968,20,0,2024-02-28T12:15:37.221Z,male_vraiment_flat_88.wav,1,False,382,55,homme,6,0.426259,84.960800
210968,21,0,2024-02-28T12:15:37.221Z,male_vraiment_flat_134.wav,0,False,1127,55,homme,0,0.000000,85.320049
210968,21,0,2024-02-28T12:15:37.221Z,male_vraiment_flat_134.wav,0,False,1127,55,homme,1,0.071043,2.147850
210968,21,0,2024-02-28T12:15:37.221Z,male_vraiment_flat_134.wav,0,False,1127,55,homme,2,0.142086,140.355465
210968,21,0,2024-02-28T12:15:37.221Z,male_vraiment_flat_134.wav,0,False,1127,55,homme,3,0.213129,98.923070
210968,21,0,2024-02-28T12:15:37.221Z,male_vraiment_flat_134.wav,0,False,1127,55,homme,4,0.284172,20.388975
210968,21,0,2024-02-28T12:15:37.221Z,male_vraiment_flat_134.wav,0,False,1127,55,homme,5,0.355215,-4.239426
210968,21,0,2024-02-28T12:15:37.221Z,male_vraiment_flat_134.wav,0,False,1127,55,homme,6,0.426259,83.444299
210968,21,0,2024-02-28T12:15:37.221Z,male_vraiment_flat_174.wav,1,True,1127,55,homme,0,0.000000,12.449350
210968,21,0,2024-02-28T12:15:37.221Z,male_vraiment_flat_174.wav,1,True,1127,55,homme,1,0.071043,17.986555
210968,21,0,2024-02-28T12:15:37.221Z,male_vraiment_flat_174.wav,1,True,1127,55,homme,2,0.142086,-72.720888
210968,21,0,2024-02-28T12:15:37.221Z,male_vraiment_flat_174.wav,1,True,1127,55,homme,3,0.213129,41.369679
210968,21,0,2024-02-28T12:15:37.221Z,male_vraiment_flat_174.wav,1,True,1127,55,homme,4,0.284172,-146.787018
210968,21,0,2024-02-28T12:15:37.221Z,male_vraiment_flat_174.wav,1,True,1127,55,homme,5,0.355215,3.271800
210968,21,0,2024-02-28T12:15:37.221Z,male_vraiment_flat_174.wav,1,True,1127,55,homme,6,0.426259,26.686198
210968,22,0,2024-02-28T12:15:37.221Z,male_vraiment_flat_144.wav,0,True,1116,55,homme,0,0.000000,-68.167624
210968,22,0,2024-02-28T12:15:37.221Z,male_vraiment_flat_144.wav,0,True,1116,55,homme,1,0.071043,-79.458647
210968,22,0,2024-02-28T12:15:37.221Z,male_vraiment_flat_144.wav,0,True,1116,55,homme,2,0.142086,-79.660425
210968,22,0,2024-02-28T12:15:37.221Z,male_vraiment_flat_144.wav,0,True,1116,55,homme,3,0.213129,60.124898
210968,22,0,2024-02-28T12:15:37.221Z,male_vraiment_flat_144.wav,0,True,1116,55,homme,4,0.284172,21.367664
210968,22,0,2024-02-28T12:15:37.221Z,male_vraiment_flat_144.wav,0,True,1116,55,homme,5,0.355215,44.158096
210968,22,0,2024-02-28T12:15:37.221Z,male_vraiment_flat_144.wav,0,True,1116,55,homme,6,0.426259,60.089593
210968,22,0,2024-02-28T12:15:37.221Z,male_vraiment_flat_130.wav,1,False,1116,55,homme,0,0.000000,-146.057737
210968,22,0,2024-02-28T12:15:37.221Z,male_vraiment_flat_130.wav,1,False,1116,55,homme,1,0.071043,-49.781911
210968,22,0,2024-02-28T12:15:37.221Z,male_vraiment_flat_130.wav,1,False,1116,55,homme,2,0.142086,74.893740
210968,22,0,2024-02-28T12:15:37.221Z,male_vraiment_flat_130.wav,1,False,1116,55,homme,3,0.213129,-14.505163
210968,22,0,2024-02-28T12:15:37.221Z,male_vraiment_flat_130.wav,1,False,1116,55,homme,4,0.284172,16.979815
210968,22,0,2024-02-28T12:15:37.221Z,male_vraiment_flat_130.wav,1,False,1116,55,homme,5,0.355215,-66.512052
210968,22,0,2024-02-28T12:15:37.221Z,male_vraiment_flat_130.wav,1,False,1116,55,homme,6,0.426259,-59.569067
210968,23,0,2024-02-28T12:15:37.221Z,male_vraiment_flat_15.wav,0,True,1127,55,homme,0,0.000000,-99.515509
210968,23,0,2024-02-28T12:15:37.221Z,male_vraiment_flat_15.wav,0,True,1127,55,homme,1,0.071043,-34.266668
210968,23,0,2024-02-28T12:15:37.221Z,male_vraiment_flat_15.wav,0,True,1127,55,homme,2,0.142086,14.847828
210968,23,0,2024-02-28T12:15:37.221Z,male_vraiment_flat_15.wav,0,True,1127,55,homme,3,0.213129,69.933849
210968,23,0,2024-02-28T12:15:37.221Z,male_vraiment_flat_15.wav,0,True,1127,55,homme,4,0.284172,112.308778
210968,23,0,2024-02-28T12:15:37.221Z,male_vraiment_flat_15.wav,0,True,1127,55,homme,5,0.355215,84.391608
210968,23,0,2024-02-28T12:15:37.221Z,male_vraiment_flat_15.wav,0,True,1127,55,homme,6,0.426259,-74.687150
210968,23,0,2024-02-28T12:15:37.221Z,male_vraiment_flat_136.wav,1,False,1127,55,homme,0,0.000000,-47.296851
210968,23,0,2024-02-28T12:15:37.221Z,male_vraiment_flat_136.wav,1,False,1127,55,homme,1,0.071043,-58.430070
210968,23,0,2024-02-28T12:15:37.221Z,male_vraiment_flat_136.wav,1,False,1127,55,homme,2,0.142086,-0.935981
210968,23,0,2024-02-28T12:15:37.221Z,male_vraiment_flat_136.wav,1,False,1127,55,homme,3,0.213129,-128.690729
210968,23,0,2024-02-28T12:15:37.221Z,male_vraiment_flat_136.wav,1,False,1127,55,homme,4,0.284172,49.658863
210968,23,0,2024-02-28T12:15:37.221Z,male_vraiment_flat_136.wav,1,False,1127,55,homme,5,0.355215,66.569477
210968,23,0,2024-02-28T12:15:37.221Z,male_vraiment_flat_136.wav,1,False,1127,55,homme,6,0.426259,92.598952
210968,24,0,2024-02-28T12:15:37.221Z,male_vraiment_flat_142.wav,0,False,556,55,homme,0,0.000000,129.881009
210968,24,0,2024-02-28T12:15:37.221Z,male_vraiment_flat_142.wav,0,False,556,55,homme,1,0.071043,116.596688
210968,24,0,2024-02-28T12:15:37.221Z,male_vraiment_flat_142.wav,0,False,556,55,homme,2,0.142086,48.203333
210968,24,0,2024-02-28T12:15:37.221Z,male_vraiment_flat_142.wav,0,False,556,55,homme,3,0.213129,100.883154
210968,24,0,2024-02-28T12:15:37.221Z,male_vraiment_flat_142.wav,0,False,556,55,homme,4,0.284172,-39.625904
210968,24,0,2024-02-28T12:15:37.221Z,male_vraiment_flat_142.wav,0,False,556,55,homme,5,0.355215,-141.802649
210968,24,0,2024-02-28T12:15:37.221Z,male_vraiment_flat_142.wav,0,False,556,55,homme,6,0.426259,58.691582
210968,24,0,2024-02-28T12:15:37.221Z,male_vraiment_flat_55.wav,1,True,556,55,homme,0,0.000000,41.960803
210968,24,0,2024-02-28T12:15:37.221Z,male_vraiment_flat_55.wav,1,True,556,55,homme,1,0.071043,-15.216637
210968,24,0,2024-02-28T12:15:37.221Z,male_vraiment_flat_55.wav,1,True,556,55,homme,2,0.142086,-141.495937
210968,24,0,2024-02-28T12:15:37.221Z,male_vraiment_flat_55.wav,1,True,556,55,homme,3,0.213129,-73.120481
210968,24,0,2024-02-28T12:15:37.221Z,male_vraiment_flat_55.wav,1,True,556,55,homme,4,0.284172,-46.277227
210968,24,0,2024-02-28T12:15:37.221Z,male_vraiment_flat_55.wav,1,True,556,55,homme,5,0.355215,60.235867
210968,24,0,2024-02-28T12:15:37.221Z,male_vraiment_flat_55.wav,1,True,556,55,homme,6,0.426259,0.915299
210968,25,0,2024-02-28T12:15:37.221Z,male_vraiment_flat_108.wav,0,True,3592,55,homme,0,0.000000,92.203113
210968,25,0,2024-02-28T12:15:37.221Z,male_vraiment_flat_108.wav,0,True,3592,55,homme,1,0.071043,-74.681876
210968,25,0,2024-02-28T12:15:37.221Z,male_vraiment_flat_108.wav,0,True,3592,55,homme,2,0.142086,-18.773488
210968,25,0,2024-02-28T12:15:37.221Z,male_vraiment_flat_108.wav,0,True,3592,55,homme,3,0.213129,73.054230
210968,25,0,2024-02-28T12:15:37.221Z,male_vraiment_flat_108.wav,0,True,3592,55,homme,4,0.284172,-72.824646
210968,25,0,2024-02-28T12:15:37.221Z,male_vraiment_flat_108.wav,0,True,3592,55,homme,5,0.355215,140.895697
210968,25,0,2024-02-28T12:15:37.221Z,male_vraiment_flat_108.wav,0,True,3592,55,homme,6,0.426259,13.161932
210968,25,0,2024-02-28T12:15:37.221Z,male_vraiment_flat_192.wav,1,False,3592,55,homme,0,0.000000,46.973159
210968,25,0,2024-02-28T12:15:37.221Z,male_vraiment_flat_192.wav,1,False,3592,55,homme,1,0.071043,-61.711820
210968,25,0,2024-02-28T12:15:37.221Z,male_vraiment_flat_192.wav,1,False,3592,55,homme,2,0.142086,14.836428
210968,25,0,2024-02-28T12:15:37.221Z,male_vraiment_flat_192.wav,1,False,3592,55,homme,3,0.213129,30.862549
210968,25,0,2024-02-28T12:15:37.221Z,male_vraiment_flat_192.wav,1,False,3592,55,homme,4,0.284172,28.459321
210968,25,0,2024-02-28T12:15:37.221Z,male_vraiment_flat_192.wav,1,False,3592,55,homme,5,0.355215,2.114815
210968,25,0,2024-02-28T12:15:37.221Z,male_vraiment_flat_192.wav,1,False,3592,55,homme,6,0.426259,86.651936
210968,26,0,2024-02-28T12:15:37.221Z,male_vraiment_flat_8.wav,0,True,1324,55,homme,0,0.000000,88.027847
210968,26,0,2024-02-28T12:15:37.221Z,male_vraiment_flat_8.wav,0,True,1324,55,homme,1,0.071043,-108.976227
210968,26,0,2024-02-28T12:15:37.221Z,male_vraiment_flat_8.wav,0,True,1324,55,homme,2,0.142086,36.591048
210968,26,0,2024-02-28T12:15:37.221Z,male_vraiment_flat_8.wav,0,True,1324,55,homme,3,0.213129,7.260113
210968,26,0,2024-02-28T12:15:37.221Z,male_vraiment_flat_8.wav,0,True,1324,55,homme,4,0.284172,-133.690195
210968,26,0,2024-02-28T12:15:37.221Z,male_vraiment_flat_8.wav,0,True,1324,55,homme,5,0.355215,9.464811
210968,26,0,2024-02-28T12:15:37.221Z,male_vraiment_flat_8.wav,0,True,1324,55,homme,6,0.426259,-67.780032
210968,26,0,2024-02-28T12:15:37.221Z,male_vraiment_flat_62.wav,1,False,1324,55,homme,0,0.000000,-118.782832
210968,26,0,2024-02-28T12:15:37.221Z,male_vraiment_flat_62.wav,1,False,1324,55,homme,1,0.071043,-35.995173
210968,26,0,2024-02-28T12:15:37.221Z,male_vraiment_flat_62.wav,1,False,1324,55,homme,2,0.142086,21.697311
210968,26,0,2024-02-28T12:15:37.221Z,male_vraiment_flat_62.wav,1,False,1324,55,homme,3,0.213129,22.125919
210968,26,0,2024-02-28T12:15:37.221Z,male_vraiment_flat_62.wav,1,False,1324,55,homme,4,0.284172,-42.995885
210968,26,0,2024-02-28T12:15:37.221Z,male_vraiment_flat_62.wav,1,False,1324,55,homme,5,0.355215,-84.376770
210968,26,0,2024-02-28T12:15:37.221Z,male_vraiment_flat_62.wav,1,False,1324,55,homme,6,0.426259,-12.230862
210968,27,0,2024-02-28T12:15:37.221Z,male_vraiment_flat_78.wav,0,True,812,55,homme,0,0.000000,80.055785
210968,27,0,2024-02-28T12:15:37.221Z,male_vraiment_flat_78.wav,0,True,812,55,homme,1,0.071043,117.831593
210968,27,0,2024-02-28T12:15:37.221Z,male_vraiment_flat_78.wav,0,True,812,55,homme,2,0.142086,-32.666549
210968,27,0,2024-02-28T12:15:37.221Z,male_vraiment_flat_78.wav,0,True,812,55,homme,3,0.213129,67.905321
210968,27,0,2024-02-28T12:15:37.221Z,male_vraiment_flat_78.wav,0,True,812,55,homme,4,0.284172,84.716683
210968,27,0,2024-02-28T12:15:37.221Z,male_vraiment_flat_78.wav,0,True,812,55,homme,5,0.355215,30.832945
210968,27,0,2024-02-28T12:15:37.221Z,male_vraiment_flat_78.wav,0,True,812,55,homme,6,0.426259,87.837740
210968,27,0,2024-02-28T12:15:37.221Z,male_vraiment_flat_118.wav,1,False,812,55,homme,0,0.000000,126.187147
210968,27,0,2024-02-28T12:15:37.221Z,male_vraiment_flat_118.wav,1,False,812,55,homme,1,0.071043,44.969184
210968,27,0,2024-02-28T12:15:37.221Z,male_vraiment_flat_118.wav,1,False,812,55,homme,2,0.142086,-108.017243
210968,27,0,2024-02-28T12:15:37.221Z,male_vraiment_flat_118.wav,1,False,812,55,homme,3,0.213129,6.480803
210968,27,0,2024-02-28T12:15:37.221Z,male_vraiment_flat_118.wav,1,False,812,55,homme,4,0.284172,89.811831
210968,27,0,2024-02-28T12:15:37.221Z,male_vraiment_flat_118.wav,1,False,812,55,homme,5,0.355215,60.034007
210968,27,0,2024-02-28T12:15:37.221Z,male_vraiment_flat_118.wav,1,False,812,55,homme,6,0.426259,63.317816
210968,28,0,2024-02-28T12:15:37.221Z,male_vraiment_flat_119.wav,0,True,1429,55,homme,0,0.000000,-44.932226
210968,28,0,2024-02-28T12:15:37.221Z,male_vraiment_flat_119.wav,0,True,1429,55,homme,1,0.071043,12.460519
210968,28,0,2024-02-28T12:15:37.221Z,male_vraiment_flat_119.wav,0,True,1429,55,homme,2,0.142086,58.855712
210968,28,0,2024-02-28T12:15:37.221Z,male_vraiment_flat_119.wav,0,True,1429,55,homme,3,0.213129,26.967779
210968,28,0,2024-02-28T12:15:37.221Z,male_vraiment_flat_119.wav,0,True,1429,55,homme,4,0.284172,139.969902
210968,28,0,2024-02-28T12:15:37.221Z,male_vraiment_flat_119.wav,0,True,1429,55,homme,5,0.355215,49.325586
210968,28,0,2024-02-28T12:15:37.221Z,male_vraiment_flat_119.wav,0,True,1429,55,homme,6,0.426259,89.552624
210968,28,0,2024-02-28T12:15:37.221Z,male_vraiment_flat_79.wav,1,False,1429,55,homme,0,0.000000,-102.946331
210968,28,0,2024-02-28T12:15:37.221Z,male_vraiment_flat_79.wav,1,False,1429,55,homme,1,0.071043,143.002978
210968,28,0,2024-02-28T12:15:37.221Z,male_vraiment_flat_79.wav,1,False,1429,55,homme,2,0.142086,-77.255333
210968,28,0,2024-02-28T12:15:37.221Z,male_vraiment_flat_79.wav,1,False,1429,55,homme,3,0.213129,139.308503
210968,28,0,2024-02-28T12:15:37.221Z,male_vraiment_flat_79.wav,1,False,1429,55,homme,4,0.284172,53.797207
210968,28,0,2024-02-28T12:15:37.221Z,male_vraiment_flat_79.wav,1,False,1429,55,homme,5,0.355215,-97.855801
210968,28,0,2024-02-28T12:15:37.221Z,male_vraiment_flat_79.wav,1,False,1429,55,homme,6,0.426259,15.451057
210968,29,0,2024-02-28T12:15:37.221Z,male_vraiment_flat_28.wav,0,False,1729,55,homme,0,0.000000,82.321174
210968,29,0,2024-02-28T12:15:37.221Z,male_vraiment_flat_28.wav,0,False,1729,55,homme,1,0.071043,-139.171806
210968,29,0,2024-02-28T12:15:37.221Z,male_vraiment_flat_28.wav,0,False,1729,55,homme,2,0.142086,-25.451767
210968,29,0,2024-02-28T12:15:37.221Z,male_vraiment_flat_28.wav,0,False,1729,55,homme,3,0.213129,-113.179723
210968,29,0,2024-02-28T12:15:37.221Z,male_vraiment_flat_28.wav,0,False,1729,55,homme,4,0.284172,-97.955774
210968,29,0,2024-02-28T12:15:37.221Z,male_vraiment_flat_28.wav,0,False,1729,55,homme,5,0.355215,43.444463
210968,29,0,2024-02-28T12:15:37.221Z,male_vraiment_flat_28.wav,0,False,1729,55,homme,6,0.426259,-9.291608
210968,29,0,2024-02-28T12:15:37.221Z,male_vraiment_flat_120.wav,1,True,1729,55,homme,0,0.000000,20.081065
210968,29,0,2024-02-28T12:15:37.221Z,male_vraiment_flat_120.wav,1,True,1729,55,homme,1,0.071043,100.844988
210968,29,0,2024-02-28T12:15:37.221Z,male_vraiment_flat_120.wav,1,True,1729,55,homme,2,0.142086,-34.199178
210968,29,0,2024-02-28T12:15:37.221Z,male_vraiment_flat_120.wav,1,True,1729,55,homme,3,0.213129,-3.979999
210968,29,0,2024-02-28T12:15:37.221Z,male_vraiment_flat_120.wav,1,True,1729,55,homme,4,0.284172,-132.448085
210968,29,0,2024-02-28T12:15:37.221Z,male_vraiment_flat_120.wav,1,True,1729,55,homme,5,0.355215,-95.704719
210968,29,0,2024-02-28T12:15:37.221Z,male_vraiment_flat_120.wav,1,True,1729,55,homme,6,0.426259,-2.125632
210968,30,0,2024-02-28T12:15:37.221Z,male_vraiment_flat_132.wav,0,False,836,55,homme,0,0.000000,-95.735908
210968,30,0,2024-02-28T12:15:37.221Z,male_vraiment_flat_132.wav,0,False,836,55,homme,1,0.071043,84.596174
210968,30,0,2024-02-28T12:15:37.221Z,male_vraiment_flat_132.wav,0,False,836,55,homme,2,0.142086,30.815879
210968,30,0,2024-02-28T12:15:37.221Z,male_vraiment_flat_132.wav,0,False,836,55,homme,3,0.213129,80.998062
210968,30,0,2024-02-28T12:15:37.221Z,male_vraiment_flat_132.wav,0,False,836,55,homme,4,0.284172,4.635713
210968,30,0,2024-02-28T12:15:37.221Z,male_vraiment_flat_132.wav,0,False,836,55,homme,5,0.355215,-66.322755
210968,30,0,2024-02-28T12:15:37.221Z,male_vraiment_flat_132.wav,0,False,836,55,homme,6,0.426259,13.571979
210968,30,0,2024-02-28T12:15:37.221Z,male_vraiment_flat_76.wav,1,True,836,55,homme,0,0.000000,-119.681125
210968,30,0,2024-02-28T12:15:37.221Z,male_vraiment_flat_76.wav,1,True,836,55,homme,1,0.071043,66.441865
210968,30,0,2024-02-28T12:15:37.221Z,male_vraiment_flat_76.wav,1,True,836,55,homme,2,0.142086,-95.265303
210968,30,0,2024-02-28T12:15:37.221Z,male_vraiment_flat_76.wav,1,True,836,55,homme,3,0.213129,7.780656
210968,30,0,2024-02-28T12:15:37.221Z,male_vraiment_flat_76.wav,1,True,836,55,homme,4,0.284172,-90.368576
210968,30,0,2024-02-28T12:15:37.221Z,male_vraiment_flat_76.wav,1,True,836,55,homme,5,0.355215,-64.528472
210968,30,0,2024-02-28T12:15:37.221Z,male_vraiment_flat_76.wav,1,True,836,55,homme,6,0.426259,-137.293439
210968,31,0,2024-02-28T12:15:37.221Z,male_vraiment_flat_54.wav,0,False,988,55,homme,0,0.000000,117.470857
210968,31,0,2024-02-28T12:15:37.221Z,male_vraiment_flat_54.wav,0,False,988,55,homme,1,0.071043,-78.886002
210968,31,0,2024-02-28T12:15:37.221Z,male_vraiment_flat_54.wav,0,False,988,55,homme,2,0.142086,14.587652
210968,31,0,2024-02-28T12:15:37.221Z,male_vraiment_flat_54.wav,0,False,988,55,homme,3,0.213129,69.368451
210968,31,0,2024-02-28T12:15:37.221Z,male_vraiment_flat_54.wav,0,False,988,55,homme,4,0.284172,64.657305
210968,31,0,2024-02-28T12:15:37.221Z,male_vraiment_flat_54.wav,0,False,988,55,homme,5,0.355215,7.845227
210968,31,0,2024-02-28T12:15:37.221Z,male_vraiment_flat_54.wav,0,False,988,55,homme,6,0.426259,-11.003085
210968,31,0,2024-02-28T12:15:37.221Z,male_vraiment_flat_184.wav,1,True,988,55,homme,0,0.000000,86.245131
210968,31,0,2024-02-28T12:15:37.221Z,male_vraiment_flat_184.wav,1,True,988,55,homme,1,0.071043,106.604050
210968,31,0,2024-02-28T12:15:37.221Z,male_vraiment_flat_184.wav,1,True,988,55,homme,2,0.142086,-48.425154
210968,31,0,2024-02-28T12:15:37.221Z,male_vraiment_flat_184.wav,1,True,988,55,homme,3,0.213129,48.927001
210968,31,0,2024-02-28T12:15:37.221Z,male_vraiment_flat_184.wav,1,True,988,55,homme,4,0.284172,-82.972934
210968,31,0,2024-02-28T12:15:37.221Z,male_vraiment_flat_184.wav,1,True,988,55,homme,5,0.355215,73.552976
210968,31,0,2024-02-28T12:15:37.221Z,male_vraiment_flat_184.wav,1,True,988,55,homme,6,0.426259,-131.359115
210968,32,0,2024-02-28T12:15:37.221Z,male_vraiment_flat_52.wav,0,False,3255,55,homme,0,0.000000,-133.801400
210968,32,0,2024-02-28T12:15:37.221Z,male_vraiment_flat_52.wav,0,False,3255,55,homme,1,0.071043,34.189717
210968,32,0,2024-02-28T12:15:37.221Z,male_vraiment_flat_52.wav,0,False,3255,55,homme,2,0.142086,-145.714669
210968,32,0,2024-02-28T12:15:37.221Z,male_vraiment_flat_52.wav,0,False,3255,55,homme,3,0.213129,1.717896
210968,32,0,2024-02-28T12:15:37.221Z,male_vraiment_flat_52.wav,0,False,3255,55,homme,4,0.284172,99.036025
210968,32,0,2024-02-28T12:15:37.221Z,male_vraiment_flat_52.wav,0,False,3255,55,homme,5,0.355215,56.473042
210968,32,0,2024-02-28T12:15:37.221Z,male_vraiment_flat_52.wav,0,False,3255,55,homme,6,0.426259,113.578937
210968,32,0,2024-02-28T12:15:37.221Z,male_vraiment_flat_185.wav,1,True,3255,55,homme,0,0.000000,7.537788
210968,32,0,2024-02-28T12:15:37.221Z,male_vraiment_flat_185.wav,1,True,3255,55,homme,1,0.071043,138.761382
210968,32,0,2024-02-28T12:15:37.221Z,male_vraiment_flat_185.wav,1,True,3255,55,homme,2,0.142086,88.970452
210968,32,0,2024-02-28T12:15:37.221Z,male_vraiment_flat_185.wav,1,True,3255,55,homme,3,0.213129,-106.980409
210968,32,0,2024-02-28T12:15:37.221Z,male_vraiment_flat_185.wav,1,True,3255,55,homme,4,0.284172,-72.334155
210968,32,0,2024-02-28T12:15:37.221Z,male_vraiment_flat_185.wav,1,True,3255,55,homme,5,0.355215,87.356426
210968,32,0,2024-02-28T12:15:37.221Z,male_vraiment_flat_185.wav,1,True,3255,55,homme,6,0.426259,90.917936
210968,33,0,2024-02-28T12:15:37.221Z,male_vraiment_flat_33.wav,0,True,1052,55,homme,0,0.000000,77.429006
210968,33,0,2024-02-28T12:15:37.221Z,male_vraiment_flat_33.wav,0,True,1052,55,homme,1,0.071043,25.170622
210968,33,0,2024-02-28T12:15:37.221Z,male_vraiment_flat_33.wav,0,True,1052,55,homme,2,0.142086,-65.854422
210968,33,0,2024-02-28T12:15:37.221Z,male_vraiment_flat_33.wav,0,True,1052,55,homme,3,0.213129,106.380035
210968,33,0,2024-02-28T12:15:37.221Z,male_vraiment_flat_33.wav,0,True,1052,55,homme,4,0.284172,126.948212
210968,33,0,2024-02-28T12:15:37.221Z,male_vraiment_flat_33.wav,0,True,1052,55,homme,5,0.355215,88.675782
210968,33,0,2024-02-28T12:15:37.221Z,male_vraiment_flat_33.wav,0,True,1052,55,homme,6,0.426259,-129.822255
210968,33,0,2024-02-28T12:15:37.221Z,male_vraiment_flat_168.wav,1,False,1052,55,homme,0,0.000000,20.996757
210968,33,0,2024-02-28T12:15:37.221Z,male_vraiment_flat_168.wav,1,False,1052,55,homme,1,0.071043,53.221671
210968,33,0,2024-02-28T12:15:37.221Z,male_vraiment_flat_168.wav,1,False,1052,55,homme,2,0.142086,15.731623
210968,33,0,2024-02-28T12:15:37.221Z,male_vraiment_flat_168.wav,1,False,1052,55,homme,3,0.213129,99.382807
210968,33,0,2024-02-28T12:15:37.221Z,male_vraiment_flat_168.wav,1,False,1052,55,homme,4,0.284172,-57.914754
210968,33,0,2024-02-28T12:15:37.221Z,male_vraiment_flat_168.wav,1,False,1052,55,homme,5,0.355215,26.961730
210968,33,0,2024-02-28T12:15:37.221Z,male_vraiment_flat_168.wav,1,False,1052,55,homme,6,0.426259,-63.149674
210968,34,0,2024-02-28T12:15:37.221Z,male_vraiment_flat_93.wav,0,False,961,55,homme,0,0.000000,89.760217
210968,34,0,2024-02-28T12:15:37.221Z,male_vraiment_flat_93.wav,0,False,961,55,homme,1,0.071043,18.591855
210968,34,0,2024-02-28T12:15:37.221Z,male_vraiment_flat_93.wav,0,False,961,55,homme,2,0.142086,63.582537
210968,34,0,2024-02-28T12:15:37.221Z,male_vraiment_flat_93.wav,0,False,961,55,homme,3,0.213129,147.491611
210968,34,0,2024-02-28T12:15:37.221Z,male_vraiment_flat_93.wav,0,False,961,55,homme,4,0.284172,-113.128196
210968,34,0,2024-02-28T12:15:37.221Z,male_vraiment_flat_93.wav,0,False,961,55,homme,5,0.355215,12.197118
210968,34,0,2024-02-28T12:15:37.221Z,male_vraiment_flat_93.wav,0,False,961,55,homme,6,0.426259,-36.730637
210968,34,0,2024-02-28T12:15:37.221Z,male_vraiment_flat_22.wav,1,True,961,55,homme,0,0.000000,131.811490
210968,34,0,2024-02-28T12:15:37.221Z,male_vraiment_flat_22.wav,1,True,961,55,homme,1,0.071043,-17.710289
210968,34,0,2024-02-28T12:15:37.221Z,male_vraiment_flat_22.wav,1,True,961,55,homme,2,0.142086,-106.310722
210968,34,0,2024-02-28T12:15:37.221Z,male_vraiment_flat_22.wav,1,True,961,55,homme,3,0.213129,-118.997283
210968,34,0,2024-02-28T12:15:37.221Z,male_vraiment_flat_22.wav,1,True,961,55,homme,4,0.284172,-44.158651
210968,34,0,2024-02-28T12:15:37.221Z,male_vraiment_flat_22.wav,1,True,961,55,homme,5,0.355215,-65.057904
210968,34,0,2024-02-28T12:15:37.221Z,male_vraiment_flat_22.wav,1,True,961,55,homme,6,0.426259,142.657358
210968,35,0,2024-02-28T12:15:37.221Z,male_vraiment_flat_163.wav,0,False,824,55,homme,0,0.000000,-73.767207
210968,35,0,2024-02-28T12:15:37.221Z,male_vraiment_flat_163.wav,0,False,824,55,homme,1,0.071043,23.213677
210968,35,0,2024-02-28T12:15:37.221Z,male_vraiment_flat_163.wav,0,False,824,55,homme,2,0.142086,-14.939662
210968,35,0,2024-02-28T12:15:37.221Z,male_vraiment_flat_163.wav,0,False,824,55,homme,3,0.213129,-71.864469
210968,35,0,2024-02-28T12:15:37.221Z,male_vraiment_flat_163.wav,0,False,824,55,homme,4,0.284172,-38.295965
210968,35,0,2024-02-28T12:15:37.221Z,male_vraiment_flat_163.wav,0,False,824,55,homme,5,0.355215,-52.851418
210968,35,0,2024-02-28T12:15:37.221Z,male_vraiment_flat_163.wav,0,False,824,55,homme,6,0.426259,-70.943671
210968,35,0,2024-02-28T12:15:37.221Z,male_vraiment_flat_96.wav,1,True,824,55,homme,0,0.000000,94.448216
210968,35,0,2024-02-28T12:15:37.221Z,male_vraiment_flat_96.wav,1,True,824,55,homme,1,0.071043,52.639741
210968,35,0,2024-02-28T12:15:37.221Z,male_vraiment_flat_96.wav,1,True,824,55,homme,2,0.142086,12.600351
210968,35,0,2024-02-28T12:15:37.221Z,male_vraiment_flat_96.wav,1,True,824,55,homme,3,0.213129,53.097554
210968,35,0,2024-02-28T12:15:37.221Z,male_vraiment_flat_96.wav,1,True,824,55,homme,4,0.284172,-62.165310
210968,35,0,2024-02-28T12:15:37.221Z,male_vraiment_flat_96.wav,1,True,824,55,homme,5,0.355215,18.022684
210968,35,0,2024-02-28T12:15:37.221Z,male_vraiment_flat_96.wav,1,True,824,55,homme,6,0.426259,-9.714791
210968,36,0,2024-02-28T12:15:37.221Z,male_vraiment_flat_140.wav,0,False,678,55,homme,0,0.000000,-149.304179
210968,36,0,2024-02-28T12:15:37.221Z,male_vraiment_flat_140.wav,0,False,678,55,homme,1,0.071043,148.600586
210968,36,0,2024-02-28T12:15:37.221Z,male_vraiment_flat_140.wav,0,False,678,55,homme,2,0.142086,-115.715849
210968,36,0,2024-02-28T12:15:37.221Z,male_vraiment_flat_140.wav,0,False,678,55,homme,3,0.213129,139.265939
210968,36,0,2024-02-28T12:15:37.221Z,male_vraiment_flat_140.wav,0,False,678,55,homme,4,0.284172,45.121427
210968,36,0,2024-02-28T12:15:37.221Z,male_vraiment_flat_140.wav,0,False,678,55,homme,5,0.355215,-93.318951
210968,36,0,2024-02-28T12:15:37.221Z,male_vraiment_flat_140.wav,0,False,678,55,homme,6,0.426259,-66.215565
210968,36,0,2024-02-28T12:15:37.221Z,male_vraiment_flat_27.wav,1,True,678,55,homme,0,0.000000,-44.196026
210968,36,0,2024-02-28T12:15:37.221Z,male_vraiment_flat_27.wav,1,True,678,55,homme,1,0.071043,72.435582
210968,36,0,2024-02-28T12:15:37.221Z,male_vraiment_flat_27.wav,1,True,678,55,homme,2,0.142086,30.880154
210968,36,0,2024-02-28T12:15:37.221Z,male_vraiment_flat_27.wav,1,True,678,55,homme,3,0.213129,-98.055697
210968,36,0,2024-02-28T12:15:37.221Z,male_vraiment_flat_27.wav,1,True,678,55,homme,4,0.284172,83.700413
210968,36,0,2024-02-28T12:15:37.221Z,male_vraiment_flat_27.wav,1,True,678,55,homme,5,0.355215,23.865121
210968,36,0,2024-02-28T12:15:37.221Z,male_vraiment_flat_27.wav,1,True,678,55,homme,6,0.426259,-44.006115
210968,37,0,2024-02-28T12:15:37.221Z,male_vraiment_flat_152.wav,0,True,1036,55,homme,0,0.000000,-121.409464
210968,37,0,2024-02-28T12:15:37.221Z,male_vraiment_flat_152.wav,0,True,1036,55,homme,1,0.071043,26.229918
210968,37,0,2024-02-28T12:15:37.221Z,male_vraiment_flat_152.wav,0,True,1036,55,homme,2,0.142086,46.107283
210968,37,0,2024-02-28T12:15:37.221Z,male_vraiment_flat_152.wav,0,True,1036,55,homme,3,0.213129,-122.378424
210968,37,0,2024-02-28T12:15:37.221Z,male_vraiment_flat_152.wav,0,True,1036,55,homme,4,0.284172,64.911076
210968,37,0,2024-02-28T12:15:37.221Z,male_vraiment_flat_152.wav,0,True,1036,55,homme,5,0.355215,129.744578
210968,37,0,2024-02-28T12:15:37.221Z,male_vraiment_flat_152.wav,0,True,1036,55,homme,6,0.426259,51.632825
210968,37,0,2024-02-28T12:15:37.221Z,male_vraiment_flat_189.wav,1,False,1036,55,homme,0,0.000000,53.448621
210968,37,0,2024-02-28T12:15:37.221Z,male_vraiment_flat_189.wav,1,False,1036,55,homme,1,0.071043,82.292801
210968,37,0,2024-02-28T12:15:37.221Z,male_vraiment_flat_189.wav,1,False,1036,55,homme,2,0.142086,-89.509706
210968,37,0,2024-02-28T12:15:37.221Z,male_vraiment_flat_189.wav,1,False,1036,55,homme,3,0.213129,61.203077
210968,37,0,2024-02-28T12:15:37.221Z,male_vraiment_flat_189.wav,1,False,1036,55,homme,4,0.284172,-64.080431
210968,37,0,2024-02-28T12:15:37.221Z,male_vraiment_flat_189.wav,1,False,1036,55,homme,5,0.355215,71.408242
210968,37,0,2024-02-28T12:15:37.221Z,male_vraiment_flat_189.wav,1,False,1036,55,homme,6,0.426259,-96.299976
210968,38,0,2024-02-28T12:15:37.221Z,male_vraiment_flat_4.wav,0,True,1580,55,homme,0,0.000000,98.226066
210968,38,0,2024-02-28T12:15:37.221Z,male_vraiment_flat_4.wav,0,True,1580,55,homme,1,0.071043,119.322928
210968,38,0,2024-02-28T12:15:37.221Z,male_vraiment_flat_4.wav,0,True,1580,55,homme,2,0.142086,-139.339853
210968,38,0,2024-02-28T12:15:37.221Z,male_vraiment_flat_4.wav,0,True,1580,55,homme,3,0.213129,-46.932317
210968,38,0,2024-02-28T12:15:37.221Z,male_vraiment_flat_4.wav,0,True,1580,55,homme,4,0.284172,-13.288809
210968,38,0,2024-02-28T12:15:37.221Z,male_vraiment_flat_4.wav,0,True,1580,55,homme,5,0.355215,94.861826
210968,38,0,2024-02-28T12:15:37.221Z,male_vraiment_flat_4.wav,0,True,1580,55,homme,6,0.426259,-84.397607
210968,38,0,2024-02-28T12:15:37.221Z,male_vraiment_flat_40.wav,1,False,1580,55,homme,0,0.000000,14.191871
210968,38,0,2024-02-28T12:15:37.221Z,male_vraiment_flat_40.wav,1,False,1580,55,homme,1,0.071043,-146.480257
210968,38,0,2024-02-28T12:15:37.221Z,male_vraiment_flat_40.wav,1,False,1580,55,homme,2,0.142086,53.736102
210968,38,0,2024-02-28T12:15:37.221Z,male_vraiment_flat_40.wav,1,False,1580,55,homme,3,0.213129,76.339598
210968,38,0,2024-02-28T12:15:37.221Z,male_vraiment_flat_40.wav,1,False,1580,55,homme,4,0.284172,128.682971
210968,38,0,2024-02-28T12:15:37.221Z,male_vraiment_flat_40.wav,1,False,1580,55,homme,5,0.355215,-84.474700
210968,38,0,2024-02-28T12:15:37.221Z,male_vraiment_flat_40.wav,1,False,1580,55,homme,6,0.426259,41.341932
210968,39,0,2024-02-28T12:15:37.221Z,male_vraiment_flat_38.wav,0,False,1047,55,homme,0,0.000000,144.136513
210968,39,0,2024-02-28T12:15:37.221Z,male_vraiment_flat_38.wav,0,False,1047,55,homme,1,0.071043,-64.103106
210968,39,0,2024-02-28T12:15:37.221Z,male_vraiment_flat_38.wav,0,False,1047,55,homme,2,0.142086,-98.673112
210968,39,0,2024-02-28T12:15:37.221Z,male_vraiment_flat_38.wav,0,False,1047,55,homme,3,0.213129,-23.920097
210968,39,0,2024-02-28T12:15:37.221Z,male_vraiment_flat_38.wav,0,False,1047,55,homme,4,0.284172,-49.884553
210968,39,0,2024-02-28T12:15:37.221Z,male_vraiment_flat_38.wav,0,False,1047,55,homme,5,0.355215,-104.927811
210968,39,0,2024-02-28T12:15:37.221Z,male_vraiment_flat_38.wav,0,False,1047,55,homme,6,0.426259,133.075001
210968,39,0,2024-02-28T12:15:37.221Z,male_vraiment_flat_24.wav,1,True,1047,55,homme,0,0.000000,-144.276814
210968,39,0,2024-02-28T12:15:37.221Z,male_vraiment_flat_24.wav,1,True,1047,55,homme,1,0.071043,-59.436611
210968,39,0,2024-02-28T12:15:37.221Z,male_vraiment_flat_24.wav,1,True,1047,55,homme,2,0.142086,45.565590
210968,39,0,2024-02-28T12:15:37.221Z,male_vraiment_flat_24.wav,1,True,1047,55,homme,3,0.213129,19.626340
210968,39,0,2024-02-28T12:15:37.221Z,male_vraiment_flat_24.wav,1,True,1047,55,homme,4,0.284172,-127.586662
210968,39,0,2024-02-28T12:15:37.221Z,male_vraiment_flat_24.wav,1,True,1047,55,homme,5,0.355215,59.214853
210968,39,0,2024-02-28T12:15:37.221Z,male_vraiment_flat_24.wav,1,True,1047,55,homme,6,0.426259,-70.996219
210968,40,0,2024-02-28T12:15:37.221Z,male_vraiment_flat_157.wav,0,False,563,55,homme,0,0.000000,20.473057
210968,40,0,2024-02-28T12:15:37.221Z,male_vraiment_flat_157.wav,0,False,563,55,homme,1,0.071043,-103.427341
210968,40,0,2024-02-28T12:15:37.221Z,male_vraiment_flat_157.wav,0,False,563,55,homme,2,0.142086,-58.670290
210968,40,0,2024-02-28T12:15:37.221Z,male_vraiment_flat_157.wav,0,False,563,55,homme,3,0.213129,-88.181786
210968,40,0,2024-02-28T12:15:37.221Z,male_vraiment_flat_157.wav,0,False,563,55,homme,4,0.284172,-145.892431
210968,40,0,2024-02-28T12:15:37.221Z,male_vraiment_flat_157.wav,0,False,563,55,homme,5,0.355215,-121.197130
210968,40,0,2024-02-28T12:15:37.221Z,male_vraiment_flat_157.wav,0,False,563,55,homme,6,0.426259,3.215116
210968,40,0,2024-02-28T12:15:37.221Z,male_vraiment_flat_103.wav,1,True,563,55,homme,0,0.000000,107.674069
210968,40,0,2024-02-28T12:15:37.221Z,male_vraiment_flat_103.wav,1,True,563,55,homme,1,0.071043,149.413476
210968,40,0,2024-02-28T12:15:37.221Z,male_vraiment_flat_103.wav,1,True,563,55,homme,2,0.142086,-1.049319
210968,40,0,2024-02-28T12:15:37.221Z,male_vraiment_flat_103.wav,1,True,563,55,homme,3,0.213129,-7.353867
210968,40,0,2024-02-28T12:15:37.221Z,male_vraiment_flat_103.wav,1,True,563,55,homme,4,0.284172,-2.169492
210968,40,0,2024-02-28T12:15:37.221Z,male_vraiment_flat_103.wav,1,True,563,55,homme,5,0.355215,-94.854916
210968,40,0,2024-02-28T12:15:37.221Z,male_vraiment_flat_103.wav,1,True,563,55,homme,6,0.426259,119.487430
210968,41,0,2024-02-28T12:15:37.221Z,male_vraiment_flat_64.wav,0,False,1084,55,homme,0,0.000000,113.461811
210968,41,0,2024-02-28T12:15:37.221Z,male_vraiment_flat_64.wav,0,False,1084,55,homme,1,0.071043,60.375974
210968,41,0,2024-02-28T12:15:37.221Z,male_vraiment_flat_64.wav,0,False,1084,55,homme,2,0.142086,-103.339599
210968,41,0,2024-02-28T12:15:37.221Z,male_vraiment_flat_64.wav,0,False,1084,55,homme,3,0.213129,103.179307
210968,41,0,2024-02-28T12:15:37.221Z,male_vraiment_flat_64.wav,0,False,1084,55,homme,4,0.284172,81.101135
210968,41,0,2024-02-28T12:15:37.221Z,male_vraiment_flat_64.wav,0,False,1084,55,homme,5,0.355215,-3.861127
210968,41,0,2024-02-28T12:15:37.221Z,male_vraiment_flat_64.wav,0,False,1084,55,homme,6,0.426259,-77.158959
210968,41,0,2024-02-28T12:15:37.221Z,male_vraiment_flat_115.wav,1,True,1084,55,homme,0,0.000000,-100.568741
210968,41,0,2024-02-28T12:15:37.221Z,male_vraiment_flat_115.wav,1,True,1084,55,homme,1,0.071043,57.843647
210968,41,0,2024-02-28T12:15:37.221Z,male_vraiment_flat_115.wav,1,True,1084,55,homme,2,0.142086,-30.946862
210968,41,0,2024-02-28T12:15:37.221Z,male_vraiment_flat_115.wav,1,True,1084,55,homme,3,0.213129,-117.622484
210968,41,0,2024-02-28T12:15:37.221Z,male_vraiment_flat_115.wav,1,True,1084,55,homme,4,0.284172,12.634833
210968,41,0,2024-02-28T12:15:37.221Z,male_vraiment_flat_115.wav,1,True,1084,55,homme,5,0.355215,-81.533692
210968,41,0,2024-02-28T12:15:37.221Z,male_vraiment_flat_115.wav,1,True,1084,55,homme,6,0.426259,-72.293995
210968,42,0,2024-02-28T12:15:37.221Z,male_vraiment_flat_95.wav,0,False,1511,55,homme,0,0.000000,144.813706
210968,42,0,2024-02-28T12:15:37.221Z,male_vraiment_flat_95.wav,0,False,1511,55,homme,1,0.071043,36.420023
210968,42,0,2024-02-28T12:15:37.221Z,male_vraiment_flat_95.wav,0,False,1511,55,homme,2,0.142086,-15.581887
210968,42,0,2024-02-28T12:15:37.221Z,male_vraiment_flat_95.wav,0,False,1511,55,homme,3,0.213129,-108.080315
210968,42,0,2024-02-28T12:15:37.221Z,male_vraiment_flat_95.wav,0,False,1511,55,homme,4,0.284172,44.827040
210968,42,0,2024-02-28T12:15:37.221Z,male_vraiment_flat_95.wav,0,False,1511,55,homme,5,0.355215,-140.857646
210968,42,0,2024-02-28T12:15:37.221Z,male_vraiment_flat_95.wav,0,False,1511,55,homme,6,0.426259,-19.601185
210968,42,0,2024-02-28T12:15:37.221Z,male_vraiment_flat_104.wav,1,True,1511,55,homme,0,0.000000,-70.174686
210968,42,0,2024-02-28T12:15:37.221Z,male_vraiment_flat_104.wav,1,True,1511,55,homme,1,0.071043,-64.753986
210968,42,0,2024-02-28T12:15:37.221Z,male_vraiment_flat_104.wav,1,True,1511,55,homme,2,0.142086,-116.293490
210968,42,0,2024-02-28T12:15:37.221Z,male_vraiment_flat_104.wav,1,True,1511,55,homme,3,0.213129,-63.059369
210968,42,0,2024-02-28T12:15:37.221Z,male_vraiment_flat_104.wav,1,True,1511,55,homme,4,0.284172,102.899256
210968,42,0,2024-02-28T12:15:37.221Z,male_vraiment_flat_104.wav,1,True,1511,55,homme,5,0.355215,-142.936640
210968,42,0,2024-02-28T12:15:37.221Z,male_vraiment_flat_104.wav,1,True,1511,55,homme,6,0.426259,-16.173865
210968,43,0,2024-02-28T12:15:37.221Z,male_vraiment_flat_66.wav,0,False,946,55,homme,0,0.000000,96.429433
210968,43,0,2024-02-28T12:15:37.221Z,male_vraiment_flat_66.wav,0,False,946,55,homme,1,0.071043,13.373052
210968,43,0,2024-02-28T12:15:37.221Z,male_vraiment_flat_66.wav,0,False,946,55,homme,2,0.142086,112.602816
210968,43,0,2024-02-28T12:15:37.221Z,male_vraiment_flat_66.wav,0,False,946,55,homme,3,0.213129,110.292573
210968,43,0,2024-02-28T12:15:37.221Z,male_vraiment_flat_66.wav,0,False,946,55,homme,4,0.284172,-89.729138
210968,43,0,2024-02-28T12:15:37.221Z,male_vraiment_flat_66.wav,0,False,946,55,homme,5,0.355215,-67.456514
210968,43,0,2024-02-28T12:15:37.221Z,male_vraiment_flat_66.wav,0,False,946,55,homme,6,0.426259,79.997172
210968,43,0,2024-02-28T12:15:37.221Z,male_vraiment_flat_116.wav,1,True,946,55,homme,0,0.000000,-80.686828
210968,43,0,2024-02-28T12:15:37.221Z,male_vraiment_flat_116.wav,1,True,946,55,homme,1,0.071043,-31.189533
210968,43,0,2024-02-28T12:15:37.221Z,male_vraiment_flat_116.wav,1,True,946,55,homme,2,0.142086,-144.914474
210968,43,0,2024-02-28T12:15:37.221Z,male_vraiment_flat_116.wav,1,True,946,55,homme,3,0.213129,-49.653212
210968,43,0,2024-02-28T12:15:37.221Z,male_vraiment_flat_116.wav,1,True,946,55,homme,4,0.284172,-94.646547
210968,43,0,2024-02-28T12:15:37.221Z,male_vraiment_flat_116.wav,1,True,946,55,homme,5,0.355215,-38.055332
210968,43,0,2024-02-28T12:15:37.221Z,male_vraiment_flat_116.wav,1,True,946,55,homme,6,0.426259,-90.510946
210968,44,0,2024-02-28T12:15:37.221Z,male_vraiment_flat_34.wav,0,False,876,55,homme,0,0.000000,55.759121
210968,44,0,2024-02-28T12:15:37.221Z,male_vraiment_flat_34.wav,0,False,876,55,homme,1,0.071043,56.428420
210968,44,0,2024-02-28T12:15:37.221Z,male_vraiment_flat_34.wav,0,False,876,55,homme,2,0.142086,-58.759553
210968,44,0,2024-02-28T12:15:37.221Z,male_vraiment_flat_34.wav,0,False,876,55,homme,3,0.213129,-145.130290
210968,44,0,2024-02-28T12:15:37.221Z,male_vraiment_flat_34.wav,0,False,876,55,homme,4,0.284172,109.056087
210968,44,0,2024-02-28T12:15:37.221Z,male_vraiment_flat_34.wav,0,False,876,55,homme,5,0.355215,-133.281135
210968,44,0,2024-02-28T12:15:37.221Z,male_vraiment_flat_34.wav,0,False,876,55,homme,6,0.426259,-126.261912
210968,44,0,2024-02-28T12:15:37.221Z,male_vraiment_flat_105.wav,1,True,876,55,homme,0,0.000000,125.556012
210968,44,0,2024-02-28T12:15:37.221Z,male_vraiment_flat_105.wav,1,True,876,55,homme,1,0.071043,102.885047
210968,44,0,2024-02-28T12:15:37.221Z,male_vraiment_flat_105.wav,1,True,876,55,homme,2,0.142086,-23.318884
210968,44,0,2024-02-28T12:15:37.221Z,male_vraiment_flat_105.wav,1,True,876,55,homme,3,0.213129,96.270063
210968,44,0,2024-02-28T12:15:37.221Z,male_vraiment_flat_105.wav,1,True,876,55,homme,4,0.284172,-32.661499
210968,44,0,2024-02-28T12:15:37.221Z,male_vraiment_flat_105.wav,1,True,876,55,homme,5,0.355215,-7.829717
210968,44,0,2024-02-28T12:15:37.221Z,male_vraiment_flat_105.wav,1,True,876,55,homme,6,0.426259,-13.047753
210968,45,0,2024-02-28T12:15:37.221Z,male_vraiment_flat_7.wav,0,False,951,55,homme,0,0.000000,43.823319
210968,45,0,2024-02-28T12:15:37.221Z,male_vraiment_flat_7.wav,0,False,951,55,homme,1,0.071043,72.049148
210968,45,0,2024-02-28T12:15:37.221Z,male_vraiment_flat_7.wav,0,False,951,55,homme,2,0.142086,-136.415247
210968,45,0,2024-02-28T12:15:37.221Z,male_vraiment_flat_7.wav,0,False,951,55,homme,3,0.213129,44.015310
210968,45,0,2024-02-28T12:15:37.221Z,male_vraiment_flat_7.wav,0,False,951,55,homme,4,0.284172,7.208530
210968,45,0,2024-02-28T12:15:37.221Z,male_vraiment_flat_7.wav,0,False,951,55,homme,5,0.355215,18.587432
210968,45,0,2024-02-28T12:15:37.221Z,male_vraiment_flat_7.wav,0,False,951,55,homme,6,0.426259,60.126473
210968,45,0,2024-02-28T12:15:37.221Z,male_vraiment_flat_13.wav,1,True,951,55,homme,0,0.000000,-66.984077
210968,45,0,2024-02-28T12:15:37.221Z,male_vraiment_flat_13.wav,1,True,951,55,homme,1,0.071043,5.429279
210968,45,0,2024-02-28T12:15:37.221Z,male_vraiment_flat_13.wav,1,True,951,55,homme,2,0.142086,12.572717
210968,45,0,2024-02-28T12:15:37.221Z,male_vraiment_flat_13.wav,1,True,951,55,homme,3,0.213129,-71.562953
210968,45,0,2024-02-28T12:15:37.221Z,male_vraiment_flat_13.wav,1,True,951,55,homme,4,0.284172,-107.999901
210968,45,0,2024-02-28T12:15:37.221Z,male_vraiment_flat_13.wav,1,True,951,55,homme,5,0.355215,86.606735
210968,45,0,2024-02-28T12:15:37.221Z,male_vraiment_flat_13.wav,1,True,951,55,homme,6,0.426259,-82.122177
210968,46,0,2024-02-28T12:15:37.221Z,male_vraiment_flat_36.wav,0,False,908,55,homme,0,0.000000,-33.837960
210968,46,0,2024-02-28T12:15:37.221Z,male_vraiment_flat_36.wav,0,False,908,55,homme,1,0.071043,102.134309
210968,46,0,2024-02-28T12:15:37.221Z,male_vraiment_flat_36.wav,0,False,908,55,homme,2,0.142086,100.949665
210968,46,0,2024-02-28T12:15:37.221Z,male_vraiment_flat_36.wav,0,False,908,55,homme,3,0.213129,77.352428
210968,46,0,2024-02-28T12:15:37.221Z,male_vraiment_flat_36.wav,0,False,908,55,homme,4,0.284172,-1.995321
210968,46,0,2024-02-28T12:15:37.221Z,male_vraiment_flat_36.wav,0,False,908,55,homme,5,0.355215,-13.382838
210968,46,0,2024-02-28T12:15:37.221Z,male_vraiment_flat_36.wav,0,False,908,55,homme,6,0.426259,-42.807835
210968,46,0,2024-02-28T12:15:37.221Z,male_vraiment_flat_156.wav,1,True,908,55,homme,0,0.000000,62.995907
210968,46,0,2024-02-28T12:15:37.221Z,male_vraiment_flat_156.wav,1,True,908,55,homme,1,0.071043,-119.801161
210968,46,0,2024-02-28T12:15:37.221Z,male_vraiment_flat_156.wav,1,True,908,55,homme,2,0.142086,-125.261471
210968,46,0,2024-02-28T12:15:37.221Z,male_vraiment_flat_156.wav,1,True,908,55,homme,3,0.213129,110.918732
210968,46,0,2024-02-28T12:15:37.221Z,male_vraiment_flat_156.wav,1,True,908,55,homme,4,0.284172,-27.635219
210968,46,0,2024-02-28T12:15:37.221Z,male_vraiment_flat_156.wav,1,True,908,55,homme,5,0.355215,57.926930
210968,46,0,2024-02-28T12:15:37.221Z,male_vraiment_flat_156.wav,1,True,908,55,homme,6,0.426259,-85.703842
210968,47,0,2024-02-28T12:15:37.221Z,male_vraiment_flat_29.wav,0,True,1351,55,homme,0,0.000000,78.626852
210968,47,0,2024-02-28T12:15:37.221Z,male_vraiment_flat_29.wav,0,True,1351,55,homme,1,0.071043,124.163952
210968,47,0,2024-02-28T12:15:37.221Z,male_vraiment_flat_29.wav,0,True,1351,55,homme,2,0.142086,-62.289103
210968,47,0,2024-02-28T12:15:37.221Z,male_vraiment_flat_29.wav,0,True,1351,55,homme,3,0.213129,54.806982
210968,47,0,2024-02-28T12:15:37.221Z,male_vraiment_flat_29.wav,0,True,1351,55,homme,4,0.284172,75.809549
210968,47,0,2024-02-28T12:15:37.221Z,male_vraiment_flat_29.wav,0,True,1351,55,homme,5,0.355215,87.233703
210968,47,0,2024-02-28T12:15:37.221Z,male_vraiment_flat_29.wav,0,True,1351,55,homme,6,0.426259,-95.916715
210968,47,0,2024-02-28T12:15:37.221Z,male_vraiment_flat_191.wav,1,False,1351,55,homme,0,0.000000,-3.321474
210968,47,0,2024-02-28T12:15:37.221Z,male_vraiment_flat_191.wav,1,False,1351,55,homme,1,0.071043,110.638678
210968,47,0,2024-02-28T12:15:37.221Z,male_vraiment_flat_191.wav,1,False,1351,55,homme,2,0.142086,142.170563
210968,47,0,2024-02-28T12:15:37.221Z,male_vraiment_flat_191.wav,1,False,1351,55,homme,3,0.213129,-110.761685
210968,47,0,2024-02-28T12:15:37.221Z,male_vraiment_flat_191.wav,1,False,1351,55,homme,4,0.284172,23.931067
210968,47,0,2024-02-28T12:15:37.221Z,male_vraiment_flat_191.wav,1,False,1351,55,homme,5,0.355215,-28.623113
210968,47,0,2024-02-28T12:15:37.221Z,male_vraiment_flat_191.wav,1,False,1351,55,homme,6,0.426259,68.073722
210968,48,0,2024-02-28T12:15:37.221Z,male_vraiment_flat_37.wav,0,False,894,55,homme,0,0.000000,-50.449081
210968,48,0,2024-02-28T12:15:37.221Z,male_vraiment_flat_37.wav,0,False,894,55,homme,1,0.071043,28.423389
210968,48,0,2024-02-28T12:15:37.221Z,male_vraiment_flat_37.wav,0,False,894,55,homme,2,0.142086,-105.344692
210968,48,0,2024-02-28T12:15:37.221Z,male_vraiment_flat_37.wav,0,False,894,55,homme,3,0.213129,-99.811505
210968,48,0,2024-02-28T12:15:37.221Z,male_vraiment_flat_37.wav,0,False,894,55,homme,4,0.284172,142.698740
210968,48,0,2024-02-28T12:15:37.221Z,male_vraiment_flat_37.wav,0,False,894,55,homme,5,0.355215,-90.971946
210968,48,0,2024-02-28T12:15:37.221Z,male_vraiment_flat_37.wav,0,False,894,55,homme,6,0.426259,19.642948
210968,48,0,2024-02-28T12:15:37.221Z,male_vraiment_flat_122.wav,1,True,894,55,homme,0,0.000000,-51.664448
210968,48,0,2024-02-28T12:15:37.221Z,male_vraiment_flat_122.wav,1,True,894,55,homme,1,0.071043,-83.789448
210968,48,0,2024-02-28T12:15:37.221Z,male_vraiment_flat_122.wav,1,True,894,55,homme,2,0.142086,-129.204529
210968,48,0,2024-02-28T12:15:37.221Z,male_vraiment_flat_122.wav,1,True,894,55,homme,3,0.213129,-2.729810
210968,48,0,2024-02-28T12:15:37.221Z,male_vraiment_flat_122.wav,1,True,894,55,homme,4,0.284172,-63.338530
210968,48,0,2024-02-28T12:15:37.221Z,male_vraiment_flat_122.wav,1,True,894,55,homme,5,0.355215,57.342517
210968,48,0,2024-02-28T12:15:37.221Z,male_vraiment_flat_122.wav,1,True,894,55,homme,6,0.426259,30.309816
210968,49,0,2024-02-28T12:15:37.221Z,male_vraiment_flat_188.wav,0,True,1362,55,homme,0,0.000000,-11.484944
210968,49,0,2024-02-28T12:15:37.221Z,male_vraiment_flat_188.wav,0,True,1362,55,homme,1,0.071043,-70.368872
210968,49,0,2024-02-28T12:15:37.221Z,male_vraiment_flat_188.wav,0,True,1362,55,homme,2,0.142086,-35.616146
210968,49,0,2024-02-28T12:15:37.221Z,male_vraiment_flat_188.wav,0,True,1362,55,homme,3,0.213129,0.109627
210968,49,0,2024-02-28T12:15:37.221Z,male_vraiment_flat_188.wav,0,True,1362,55,homme,4,0.284172,2.553157
210968,49,0,2024-02-28T12:15:37.221Z,male_vraiment_flat_188.wav,0,True,1362,55,homme,5,0.355215,-21.302793
210968,49,0,2024-02-28T12:15:37.221Z,male_vraiment_flat_188.wav,0,True,1362,55,homme,6,0.426259,-116.307336
210968,49,0,2024-02-28T12:15:37.221Z,male_vraiment_flat_133.wav,1,False,1362,55,homme,0,0.000000,-33.116176
210968,49,0,2024-02-28T12:15:37.221Z,male_vraiment_flat_133.wav,1,False,1362,55,homme,1,0.071043,-79.722902
210968,49,0,2024-02-28T12:15:37.221Z,male_vraiment_flat_133.wav,1,False,1362,55,homme,2,0.142086,-0.174059
210968,49,0,2024-02-28T12:15:37.221Z,male_vraiment_flat_133.wav,1,False,1362,55,homme,3,0.213129,82.274364
210968,49,0,2024-02-28T12:15:37.221Z,male_vraiment_flat_133.wav,1,False,1362,55,homme,4,0.284172,-109.731995
210968,49,0,2024-02-28T12:15:37.221Z,male_vraiment_flat_133.wav,1,False,1362,55,homme,5,0.355215,-72.489270
210968,49,0,2024-02-28T12:15:37.221Z,male_vraiment_flat_133.wav,1,False,1362,55,homme,6,0.426259,11.511705
210968,50,1,2024-02-28T12:15:37.221Z,male_vraiment_flat_68.wav,0,False,940,55,homme,0,0.000000,-95.161618
210968,50,1,2024-02-28T12:15:37.221Z,male_vraiment_flat_68.wav,0,False,940,55,homme,1,0.071043,-119.152564
210968,50,1,2024-02-28T12:15:37.221Z,male_vraiment_flat_68.wav,0,False,940,55,homme,2,0.142086,18.051976
210968,50,1,2024-02-28T12:15:37.221Z,male_vraiment_flat_68.wav,0,False,940,55,homme,3,0.213129,-26.870716
210968,50,1,2024-02-28T12:15:37.221Z,male_vraiment_flat_68.wav,0,False,940,55,homme,4,0.284172,87.472746
210968,50,1,2024-02-28T12:15:37.221Z,male_vraiment_flat_68.wav,0,False,940,55,homme,5,0.355215,-56.607347
210968,50,1,2024-02-28T12:15:37.221Z,male_vraiment_flat_68.wav,0,False,940,55,homme,6,0.426259,148.066508
210968,50,1,2024-02-28T12:15:37.221Z,male_vraiment_flat_6.wav,1,True,940,55,homme,0,0.000000,99.637695
210968,50,1,2024-02-28T12:15:37.221Z,male_vraiment_flat_6.wav,1,True,940,55,homme,1,0.071043,129.019395
210968,50,1,2024-02-28T12:15:37.221Z,male_vraiment_flat_6.wav,1,True,940,55,homme,2,0.142086,85.352544
210968,50,1,2024-02-28T12:15:37.221Z,male_vraiment_flat_6.wav,1,True,940,55,homme,3,0.213129,122.275637
210968,50,1,2024-02-28T12:15:37.221Z,male_vraiment_flat_6.wav,1,True,940,55,homme,4,0.284172,45.838224
210968,50,1,2024-02-28T12:15:37.221Z,male_vraiment_flat_6.wav,1,True,940,55,homme,5,0.355215,149.126562
210968,50,1,2024-02-28T12:15:37.221Z,male_vraiment_flat_6.wav,1,True,940,55,homme,6,0.426259,9.632372
210968,51,1,2024-02-28T12:15:37.221Z,male_vraiment_flat_14.wav,0,False,855,55,homme,0,0.000000,-139.491371
210968,51,1,2024-02-28T12:15:37.221Z,male_vraiment_flat_14.wav,0,False,855,55,homme,1,0.071043,-89.621492
210968,51,1,2024-02-28T12:15:37.221Z,male_vraiment_flat_14.wav,0,False,855,55,homme,2,0.142086,-85.009614
210968,51,1,2024-02-28T12:15:37.221Z,male_vraiment_flat_14.wav,0,False,855,55,homme,3,0.213129,-29.902058
210968,51,1,2024-02-28T12:15:37.221Z,male_vraiment_flat_14.wav,0,False,855,55,homme,4,0.284172,-86.665261
210968,51,1,2024-02-28T12:15:37.221Z,male_vraiment_flat_14.wav,0,False,855,55,homme,5,0.355215,27.459037
210968,51,1,2024-02-28T12:15:37.221Z,male_vraiment_flat_14.wav,0,False,855,55,homme,6,0.426259,33.245669
210968,51,1,2024-02-28T12:15:37.221Z,male_vraiment_flat_42.wav,1,True,855,55,homme,0,0.000000,-6.709342
210968,51,1,2024-02-28T12:15:37.221Z,male_vraiment_flat_42.wav,1,True,855,55,homme,1,0.071043,35.704202
210968,51,1,2024-02-28T12:15:37.221Z,male_vraiment_flat_42.wav,1,True,855,55,homme,2,0.142086,-71.421689
210968,51,1,2024-02-28T12:15:37.221Z,male_vraiment_flat_42.wav,1,True,855,55,homme,3,0.213129,-126.906461
210968,51,1,2024-02-28T12:15:37.221Z,male_vraiment_flat_42.wav,1,True,855,55,homme,4,0.284172,10.231121
210968,51,1,2024-02-28T12:15:37.221Z,male_vraiment_flat_42.wav,1,True,855,55,homme,5,0.355215,128.933526
210968,51,1,2024-02-28T12:15:37.221Z,male_vraiment_flat_42.wav,1,True,855,55,homme,6,0.426259,-76.727395
210968,52,1,2024-02-28T12:15:37.221Z,male_vraiment_flat_98.wav,0,False,1511,55,homme,0,0.000000,102.170357
210968,52,1,2024-02-28T12:15:37.221Z,male_vraiment_flat_98.wav,0,False,1511,55,homme,1,0.071043,20.715456
210968,52,1,2024-02-28T12:15:37.221Z,male_vraiment_flat_98.wav,0,False,1511,55,homme,2,0.142086,81.972821
210968,52,1,2024-02-28T12:15:37.221Z,male_vraiment_flat_98.wav,0,False,1511,55,homme,3,0.213129,-125.018297
210968,52,1,2024-02-28T12:15:37.221Z,male_vraiment_flat_98.wav,0,False,1511,55,homme,4,0.284172,103.374214
210968,52,1,2024-02-28T12:15:37.221Z,male_vraiment_flat_98.wav,0,False,1511,55,homme,5,0.355215,-81.704677
210968,52,1,2024-02-28T12:15:37.221Z,male_vraiment_flat_98.wav,0,False,1511,55,homme,6,0.426259,85.109238
210968,52,1,2024-02-28T12:15:37.221Z,male_vraiment_flat_72.wav,1,True,1511,55,homme,0,0.000000,-108.464526
210968,52,1,2024-02-28T12:15:37.221Z,male_vraiment_flat_72.wav,1,True,1511,55,homme,1,0.071043,78.835335
210968,52,1,2024-02-28T12:15:37.221Z,male_vraiment_flat_72.wav,1,True,1511,55,homme,2,0.142086,134.553834
210968,52,1,2024-02-28T12:15:37.221Z,male_vraiment_flat_72.wav,1,True,1511,55,homme,3,0.213129,5.396534
210968,52,1,2024-02-28T12:15:37.221Z,male_vraiment_flat_72.wav,1,True,1511,55,homme,4,0.284172,7.798595
210968,52,1,2024-02-28T12:15:37.221Z,male_vraiment_flat_72.wav,1,True,1511,55,homme,5,0.355215,65.510626
210968,52,1,2024-02-28T12:15:37.221Z,male_vraiment_flat_72.wav,1,True,1511,55,homme,6,0.426259,-103.798030
210968,53,1,2024-02-28T12:15:37.221Z,male_vraiment_flat_150.wav,0,True,2940,55,homme,0,0.000000,-0.845919
210968,53,1,2024-02-28T12:15:37.221Z,male_vraiment_flat_150.wav,0,True,2940,55,homme,1,0.071043,-101.665398
210968,53,1,2024-02-28T12:15:37.221Z,male_vraiment_flat_150.wav,0,True,2940,55,homme,2,0.142086,-128.909269
210968,53,1,2024-02-28T12:15:37.221Z,male_vraiment_flat_150.wav,0,True,2940,55,homme,3,0.213129,-98.956601
210968,53,1,2024-02-28T12:15:37.221Z,male_vraiment_flat_150.wav,0,True,2940,55,homme,4,0.284172,-120.693020
210968,53,1,2024-02-28T12:15:37.221Z,male_vraiment_flat_150.wav,0,True,2940,55,homme,5,0.355215,-126.286795
210968,53,1,2024-02-28T12:15:37.221Z,male_vraiment_flat_150.wav,0,True,2940,55,homme,6,0.426259,121.368949
210968,53,1,2024-02-28T12:15:37.221Z,male_vraiment_flat_3.wav,1,False,2940,55,homme,0,0.000000,139.821339
210968,53,1,2024-02-28T12:15:37.221Z,male_vraiment_flat_3.wav,1,False,2940,55,homme,1,0.071043,-90.088416
210968,53,1,2024-02-28T12:15:37.221Z,male_vraiment_flat_3.wav,1,False,2940,55,homme,2,0.142086,-144.376143
210968,53,1,2024-02-28T12:15:37.221Z,male_vraiment_flat_3.wav,1,False,2940,55,homme,3,0.213129,-83.117215
210968,53,1,2024-02-28T12:15:37.221Z,male_vraiment_flat_3.wav,1,False,2940,55,homme,4,0.284172,-15.266959
210968,53,1,2024-02-28T12:15:37.221Z,male_vraiment_flat_3.wav,1,False,2940,55,homme,5,0.355215,-78.645111
210968,53,1,2024-02-28T12:15:37.221Z,male_vraiment_flat_3.wav,1,False,2940,55,homme,6,0.426259,18.566710
210968,54,1,2024-02-28T12:15:37.221Z,male_vraiment_flat_154.wav,0,True,763,55,homme,0,0.000000,-56.341735
210968,54,1,2024-02-28T12:15:37.221Z,male_vraiment_flat_154.wav,0,True,763,55,homme,1,0.071043,15.133004
210968,54,1,2024-02-28T12:15:37.221Z,male_vraiment_flat_154.wav,0,True,763,55,homme,2,0.142086,67.588138
210968,54,1,2024-02-28T12:15:37.221Z,male_vraiment_flat_154.wav,0,True,763,55,homme,3,0.213129,4.827765
210968,54,1,2024-02-28T12:15:37.221Z,male_vraiment_flat_154.wav,0,True,763,55,homme,4,0.284172,-119.124529
210968,54,1,2024-02-28T12:15:37.221Z,male_vraiment_flat_154.wav,0,True,763,55,homme,5,0.355215,137.124750
210968,54,1,2024-02-28T12:15:37.221Z,male_vraiment_flat_154.wav,0,True,763,55,homme,6,0.426259,-61.627299
210968,54,1,2024-02-28T12:15:37.221Z,male_vraiment_flat_71.wav,1,False,763,55,homme,0,0.000000,98.558580
210968,54,1,2024-02-28T12:15:37.221Z,male_vraiment_flat_71.wav,1,False,763,55,homme,1,0.071043,119.886109
210968,54,1,2024-02-28T12:15:37.221Z,male_vraiment_flat_71.wav,1,False,763,55,homme,2,0.142086,-7.976954
210968,54,1,2024-02-28T12:15:37.221Z,male_vraiment_flat_71.wav,1,False,763,55,homme,3,0.213129,7.397873
210968,54,1,2024-02-28T12:15:37.221Z,male_vraiment_flat_71.wav,1,False,763,55,homme,4,0.284172,8.946833
210968,54,1,2024-02-28T12:15:37.221Z,male_vraiment_flat_71.wav,1,False,763,55,homme,5,0.355215,-77.850016
210968,54,1,2024-02-28T12:15:37.221Z,male_vraiment_flat_71.wav,1,False,763,55,homme,6,0.426259,-8.433981
210968,55,1,2024-02-28T12:15:37.221Z,male_vraiment_flat_193.wav,0,False,540,55,homme,0,0.000000,-104.498046
210968,55,1,2024-02-28T12:15:37.221Z,male_vraiment_flat_193.wav,0,False,540,55,homme,1,0.071043,27.454942
210968,55,1,2024-02-28T12:15:37.221Z,male_vraiment_flat_193.wav,0,False,540,55,homme,2,0.142086,-81.084240
210968,55,1,2024-02-28T12:15:37.221Z,male_vraiment_flat_193.wav,0,False,540,55,homme,3,0.213129,-66.105426
210968,55,1,2024-02-28T12:15:37.221Z,male_vraiment_flat_193.wav,0,False,540,55,homme,4,0.284172,-18.843418
210968,55,1,2024-02-28T12:15:37.221Z,male_vraiment_flat_193.wav,0,False,540,55,homme,5,0.355215,59.447118
210968,55,1,2024-02-28T12:15:37.221Z,male_vraiment_flat_193.wav,0,False,540,55,homme,6,0.426259,86.357299
210968,55,1,2024-02-28T12:15:37.221Z,male_vraiment_flat_19.wav,1,True,540,55,homme,0,0.000000,-23.596543
210968,55,1,2024-02-28T12:15:37.221Z,male_vraiment_flat_19.wav,1,True,540,55,homme,1,0.071043,-71.824414
210968,55,1,2024-02-28T12:15:37.221Z,male_vraiment_flat_19.wav,1,True,540,55,homme,2,0.142086,88.506579
210968,55,1,2024-02-28T12:15:37.221Z,male_vraiment_flat_19.wav,1,True,540,55,homme,3,0.213129,-79.935804
210968,55,1,2024-02-28T12:15:37.221Z,male_vraiment_flat_19.wav,1,True,540,55,homme,4,0.284172,97.974212
210968,55,1,2024-02-28T12:15:37.221Z,male_vraiment_flat_19.wav,1,True,540,55,homme,5,0.355215,-89.439384
210968,55,1,2024-02-28T12:15:37.221Z,male_vraiment_flat_19.wav,1,True,540,55,homme,6,0.426259,-131.198163
210968,56,1,2024-02-28T12:15:37.221Z,male_vraiment_flat_80.wav,0,False,775,55,homme,0,0.000000,74.549472
210968,56,1,2024-02-28T12:15:37.221Z,male_vraiment_flat_80.wav,0,False,775,55,homme,1,0.071043,28.548945
210968,56,1,2024-02-28T12:15:37.221Z,male_vraiment_flat_80.wav,0,False,775,55,homme,2,0.142086,-70.639605
210968,56,1,2024-02-28T12:15:37.221Z,male_vraiment_flat_80.wav,0,False,775,55,homme,3,0.213129,105.678511
210968,56,1,2024-02-28T12:15:37.221Z,male_vraiment_flat_80.wav,0,False,775,55,homme,4,0.284172,54.429698
210968,56,1,2024-02-28T12:15:37.221Z,male_vraiment_flat_80.wav,0,False,775,55,homme,5,0.355215,38.972413
210968,56,1,2024-02-28T12:15:37.221Z,male_vraiment_flat_80.wav,0,False,775,55,homme,6,0.426259,36.313071
210968,56,1,2024-02-28T12:15:37.221Z,male_vraiment_flat_109.wav,1,True,775,55,homme,0,0.000000,47.448278
210968,56,1,2024-02-28T12:15:37.221Z,male_vraiment_flat_109.wav,1,True,775,55,homme,1,0.071043,97.426800
210968,56,1,2024-02-28T12:15:37.221Z,male_vraiment_flat_109.wav,1,True,775,55,homme,2,0.142086,-100.706472
210968,56,1,2024-02-28T12:15:37.221Z,male_vraiment_flat_109.wav,1,True,775,55,homme,3,0.213129,-21.542212
210968,56,1,2024-02-28T12:15:37.221Z,male_vraiment_flat_109.wav,1,True,775,55,homme,4,0.284172,-35.096541
210968,56,1,2024-02-28T12:15:37.221Z,male_vraiment_flat_109.wav,1,True,775,55,homme,5,0.355215,33.270062
210968,56,1,2024-02-28T12:15:37.221Z,male_vraiment_flat_109.wav,1,True,775,55,homme,6,0.426259,35.804127
210968,57,1,2024-02-28T12:15:37.221Z,male_vraiment_flat_169.wav,0,False,844,55,homme,0,0.000000,117.441793
210968,57,1,2024-02-28T12:15:37.221Z,male_vraiment_flat_169.wav,0,False,844,55,homme,1,0.071043,-117.459261
210968,57,1,2024-02-28T12:15:37.221Z,male_vraiment_flat_169.wav,0,False,844,55,homme,2,0.142086,-45.020491
210968,57,1,2024-02-28T12:15:37.221Z,male_vraiment_flat_169.wav,0,False,844,55,homme,3,0.213129,-67.699150
210968,57,1,2024-02-28T12:15:37.221Z,male_vraiment_flat_169.wav,0,False,844,55,homme,4,0.284172,-122.755451
210968,57,1,2024-02-28T12:15:37.221Z,male_vraiment_flat_169.wav,0,False,844,55,homme,5,0.355215,-10.702133
210968,57,1,2024-02-28T12:15:37.221Z,male_vraiment_flat_169.wav,0,False,844,55,homme,6,0.426259,66.943327
210968,57,1,2024-02-28T12:15:37.221Z,male_vraiment_flat_187.wav,1,True,844,55,homme,0,0.000000,-30.403680
210968,57,1,2024-02-28T12:15:37.221Z,male_vraiment_flat_187.wav,1,True,844,55,homme,1,0.071043,-60.531290
210968,57,1,2024-02-28T12:15:37.221Z,male_vraiment_flat_187.wav,1,True,844,55,homme,2,0.142086,-84.335778
210968,57,1,2024-02-28T12:15:37.221Z,male_vraiment_flat_187.wav,1,True,844,55,homme,3,0.213129,-15.670285
210968,57,1,2024-02-28T12:15:37.221Z,male_vraiment_flat_187.wav,1,True,844,55,homme,4,0.284172,-56.852158
210968,57,1,2024-02-28T12:15:37.221Z,male_vraiment_flat_187.wav,1,True,844,55,homme,5,0.355215,50.399162
210968,57,1,2024-02-28T12:15:37.221Z,male_vraiment_flat_187.wav,1,True,844,55,homme,6,0.426259,83.384475
210968,58,1,2024-02-28T12:15:37.221Z,male_vraiment_flat_85.wav,0,True,1239,55,homme,0,0.000000,16.220058
210968,58,1,2024-02-28T12:15:37.221Z,male_vraiment_flat_85.wav,0,True,1239,55,homme,1,0.071043,97.172848
210968,58,1,2024-02-28T12:15:37.221Z,male_vraiment_flat_85.wav,0,True,1239,55,homme,2,0.142086,121.919735
210968,58,1,2024-02-28T12:15:37.221Z,male_vraiment_flat_85.wav,0,True,1239,55,homme,3,0.213129,69.049273
210968,58,1,2024-02-28T12:15:37.221Z,male_vraiment_flat_85.wav,0,True,1239,55,homme,4,0.284172,124.256579
210968,58,1,2024-02-28T12:15:37.221Z,male_vraiment_flat_85.wav,0,True,1239,55,homme,5,0.355215,30.981006
210968,58,1,2024-02-28T12:15:37.221Z,male_vraiment_flat_85.wav,0,True,1239,55,homme,6,0.426259,-67.410158
210968,58,1,2024-02-28T12:15:37.221Z,male_vraiment_flat_147.wav,1,False,1239,55,homme,0,0.000000,-109.572708
210968,58,1,2024-02-28T12:15:37.221Z,male_vraiment_flat_147.wav,1,False,1239,55,homme,1,0.071043,-50.943910
210968,58,1,2024-02-28T12:15:37.221Z,male_vraiment_flat_147.wav,1,False,1239,55,homme,2,0.142086,145.950821
210968,58,1,2024-02-28T12:15:37.221Z,male_vraiment_flat_147.wav,1,False,1239,55,homme,3,0.213129,141.813801
210968,58,1,2024-02-28T12:15:37.221Z,male_vraiment_flat_147.wav,1,False,1239,55,homme,4,0.284172,53.597843
210968,58,1,2024-02-28T12:15:37.221Z,male_vraiment_flat_147.wav,1,False,1239,55,homme,5,0.355215,-21.310214
210968,58,1,2024-02-28T12:15:37.221Z,male_vraiment_flat_147.wav,1,False,1239,55,homme,6,0.426259,-94.477021
210968,59,1,2024-02-28T12:15:37.221Z,male_vraiment_flat_113.wav,0,True,812,55,homme,0,0.000000,52.176539
210968,59,1,2024-02-28T12:15:37.221Z,male_vraiment_flat_113.wav,0,True,812,55,homme,1,0.071043,52.904766
210968,59,1,2024-02-28T12:15:37.221Z,male_vraiment_flat_113.wav,0,True,812,55,homme,2,0.142086,-138.473207
210968,59,1,2024-02-28T12:15:37.221Z,male_vraiment_flat_113.wav,0,True,812,55,homme,3,0.213129,-65.217652
210968,59,1,2024-02-28T12:15:37.221Z,male_vraiment_flat_113.wav,0,True,812,55,homme,4,0.284172,3.928053
210968,59,1,2024-02-28T12:15:37.221Z,male_vraiment_flat_113.wav,0,True,812,55,homme,5,0.355215,69.229623
210968,59,1,2024-02-28T12:15:37.221Z,male_vraiment_flat_113.wav,0,True,812,55,homme,6,0.426259,-85.157528
210968,59,1,2024-02-28T12:15:37.221Z,male_vraiment_flat_179.wav,1,False,812,55,homme,0,0.000000,31.793897
210968,59,1,2024-02-28T12:15:37.221Z,male_vraiment_flat_179.wav,1,False,812,55,homme,1,0.071043,-7.766660
210968,59,1,2024-02-28T12:15:37.221Z,male_vraiment_flat_179.wav,1,False,812,55,homme,2,0.142086,14.202215
210968,59,1,2024-02-28T12:15:37.221Z,male_vraiment_flat_179.wav,1,False,812,55,homme,3,0.213129,-28.726082
210968,59,1,2024-02-28T12:15:37.221Z,male_vraiment_flat_179.wav,1,False,812,55,homme,4,0.284172,-38.298342
210968,59,1,2024-02-28T12:15:37.221Z,male_vraiment_flat_179.wav,1,False,812,55,homme,5,0.355215,97.025797
210968,59,1,2024-02-28T12:15:37.221Z,male_vraiment_flat_179.wav,1,False,812,55,homme,6,0.426259,-148.112175
210968,60,1,2024-02-28T12:15:37.221Z,male_vraiment_flat_176.wav,0,True,1105,55,homme,0,0.000000,-0.886832
210968,60,1,2024-02-28T12:15:37.221Z,male_vraiment_flat_176.wav,0,True,1105,55,homme,1,0.071043,48.604994
210968,60,1,2024-02-28T12:15:37.221Z,male_vraiment_flat_176.wav,0,True,1105,55,homme,2,0.142086,33.352714
210968,60,1,2024-02-28T12:15:37.221Z,male_vraiment_flat_176.wav,0,True,1105,55,homme,3,0.213129,-55.356586
210968,60,1,2024-02-28T12:15:37.221Z,male_vraiment_flat_176.wav,0,True,1105,55,homme,4,0.284172,-13.903711
210968,60,1,2024-02-28T12:15:37.221Z,male_vraiment_flat_176.wav,0,True,1105,55,homme,5,0.355215,54.096530
210968,60,1,2024-02-28T12:15:37.221Z,male_vraiment_flat_176.wav,0,True,1105,55,homme,6,0.426259,-77.791606
210968,60,1,2024-02-28T12:15:37.221Z,male_vraiment_flat_73.wav,1,False,1105,55,homme,0,0.000000,116.322519
210968,60,1,2024-02-28T12:15:37.221Z,male_vraiment_flat_73.wav,1,False,1105,55,homme,1,0.071043,-36.491811
210968,60,1,2024-02-28T12:15:37.221Z,male_vraiment_flat_73.wav,1,False,1105,55,homme,2,0.142086,56.992902
210968,60,1,2024-02-28T12:15:37.221Z,male_vraiment_flat_73.wav,1,False,1105,55,homme,3,0.213129,-102.405714
210968,60,1,2024-02-28T12:15:37.221Z,male_vraiment_flat_73.wav,1,False,1105,55,homme,4,0.284172,18.027278
210968,60,1,2024-02-28T12:15:37.221Z,male_vraiment_flat_73.wav,1,False,1105,55,homme,5,0.355215,92.986932
210968,60,1,2024-02-28T12:15:37.221Z,male_vraiment_flat_73.wav,1,False,1105,55,homme,6,0.426259,-12.148577
210968,61,1,2024-02-28T12:15:37.221Z,male_vraiment_flat_31.wav,0,False,812,55,homme,0,0.000000,-118.123136
210968,61,1,2024-02-28T12:15:37.221Z,male_vraiment_flat_31.wav,0,False,812,55,homme,1,0.071043,-54.324615
210968,61,1,2024-02-28T12:15:37.221Z,male_vraiment_flat_31.wav,0,False,812,55,homme,2,0.142086,-56.463303
210968,61,1,2024-02-28T12:15:37.221Z,male_vraiment_flat_31.wav,0,False,812,55,homme,3,0.213129,65.563679
210968,61,1,2024-02-28T12:15:37.221Z,male_vraiment_flat_31.wav,0,False,812,55,homme,4,0.284172,91.438424
210968,61,1,2024-02-28T12:15:37.221Z,male_vraiment_flat_31.wav,0,False,812,55,homme,5,0.355215,-2.661707
210968,61,1,2024-02-28T12:15:37.221Z,male_vraiment_flat_31.wav,0,False,812,55,homme,6,0.426259,-48.318391
210968,61,1,2024-02-28T12:15:37.221Z,male_vraiment_flat_125.wav,1,True,812,55,homme,0,0.000000,-40.862052
210968,61,1,2024-02-28T12:15:37.221Z,male_vraiment_flat_125.wav,1,True,812,55,homme,1,0.071043,93.193290
210968,61,1,2024-02-28T12:15:37.221Z,male_vraiment_flat_125.wav,1,True,812,55,homme,2,0.142086,71.046063
210968,61,1,2024-02-28T12:15:37.221Z,male_vraiment_flat_125.wav,1,True,812,55,homme,3,0.213129,-144.093496
210968,61,1,2024-02-28T12:15:37.221Z,male_vraiment_flat_125.wav,1,True,812,55,homme,4,0.284172,-1.218193
210968,61,1,2024-02-28T12:15:37.221Z,male_vraiment_flat_125.wav,1,True,812,55,homme,5,0.355215,94.223966
210968,61,1,2024-02-28T12:15:37.221Z,male_vraiment_flat_125.wav,1,True,812,55,homme,6,0.426259,-56.349938
210968,62,1,2024-02-28T12:15:37.221Z,male_vraiment_flat_155.wav,0,False,1770,55,homme,0,0.000000,-140.284917
210968,62,1,2024-02-28T12:15:37.221Z,male_vraiment_flat_155.wav,0,False,1770,55,homme,1,0.071043,56.043903
210968,62,1,2024-02-28T12:15:37.221Z,male_vraiment_flat_155.wav,0,False,1770,55,homme,2,0.142086,-2.142699
210968,62,1,2024-02-28T12:15:37.221Z,male_vraiment_flat_155.wav,0,False,1770,55,homme,3,0.213129,-41.999388
210968,62,1,2024-02-28T12:15:37.221Z,male_vraiment_flat_155.wav,0,False,1770,55,homme,4,0.284172,-69.522618
210968,62,1,2024-02-28T12:15:37.221Z,male_vraiment_flat_155.wav,0,False,1770,55,homme,5,0.355215,29.697532
210968,62,1,2024-02-28T12:15:37.221Z,male_vraiment_flat_155.wav,0,False,1770,55,homme,6,0.426259,40.565741
210968,62,1,2024-02-28T12:15:37.221Z,male_vraiment_flat_177.wav,1,True,1770,55,homme,0,0.000000,16.306046
210968,62,1,2024-02-28T12:15:37.221Z,male_vraiment_flat_177.wav,1,True,1770,55,homme,1,0.071043,49.193464
210968,62,1,2024-02-28T12:15:37.221Z,male_vraiment_flat_177.wav,1,True,1770,55,homme,2,0.142086,-57.450827
210968,62,1,2024-02-28T12:15:37.221Z,male_vraiment_flat_177.wav,1,True,1770,55,homme,3,0.213129,-71.200742
210968,62,1,2024-02-28T12:15:37.221Z,male_vraiment_flat_177.wav,1,True,1770,55,homme,4,0.284172,75.759547
210968,62,1,2024-02-28T12:15:37.221Z,male_vraiment_flat_177.wav,1,True,1770,55,homme,5,0.355215,-147.097868
210968,62,1,2024-02-28T12:15:37.221Z,male_vraiment_flat_177.wav,1,True,1770,55,homme,6,0.426259,-23.614561
210968,63,1,2024-02-28T12:15:37.221Z,male_vraiment_flat_17.wav,0,False,636,55,homme,0,0.000000,91.198655
210968,63,1,2024-02-28T12:15:37.221Z,male_vraiment_flat_17.wav,0,False,636,55,homme,1,0.071043,44.952547
210968,63,1,2024-02-28T12:15:37.221Z,male_vraiment_flat_17.wav,0,False,636,55,homme,2,0.142086,-82.852461
210968,63,1,2024-02-28T12:15:37.221Z,male_vraiment_flat_17.wav,0,False,636,55,homme,3,0.213129,-89.451177
210968,63,1,2024-02-28T12:15:37.221Z,male_vraiment_flat_17.wav,0,False,636,55,homme,4,0.284172,-149.534475
210968,63,1,2024-02-28T12:15:37.221Z,male_vraiment_flat_17.wav,0,False,636,55,homme,5,0.355215,-107.621144
210968,63,1,2024-02-28T12:15:37.221Z,male_vraiment_flat_17.wav,0,False,636,55,homme,6,0.426259,-93.535165
210968,63,1,2024-02-28T12:15:37.221Z,male_vraiment_flat_39.wav,1,True,636,55,homme,0,0.000000,111.266402
210968,63,1,2024-02-28T12:15:37.221Z,male_vraiment_flat_39.wav,1,True,636,55,homme,1,0.071043,99.799676
210968,63,1,2024-02-28T12:15:37.221Z,male_vraiment_flat_39.wav,1,True,636,55,homme,2,0.142086,45.272629
210968,63,1,2024-02-28T12:15:37.221Z,male_vraiment_flat_39.wav,1,True,636,55,homme,3,0.213129,-145.406877
210968,63,1,2024-02-28T12:15:37.221Z,male_vraiment_flat_39.wav,1,True,636,55,homme,4,0.284172,46.363124
210968,63,1,2024-02-28T12:15:37.221Z,male_vraiment_flat_39.wav,1,True,636,55,homme,5,0.355215,90.908213
210968,63,1,2024-02-28T12:15:37.221Z,male_vraiment_flat_39.wav,1,True,636,55,homme,6,0.426259,-13.802222
210968,64,1,2024-02-28T12:15:37.221Z,male_vraiment_flat_145.wav,0,False,652,55,homme,0,0.000000,-57.363512
210968,64,1,2024-02-28T12:15:37.221Z,male_vraiment_flat_145.wav,0,False,652,55,homme,1,0.071043,98.212837
210968,64,1,2024-02-28T12:15:37.221Z,male_vraiment_flat_145.wav,0,False,652,55,homme,2,0.142086,141.769894
210968,64,1,2024-02-28T12:15:37.221Z,male_vraiment_flat_145.wav,0,False,652,55,homme,3,0.213129,137.732142
210968,64,1,2024-02-28T12:15:37.221Z,male_vraiment_flat_145.wav,0,False,652,55,homme,4,0.284172,20.834317
210968,64,1,2024-02-28T12:15:37.221Z,male_vraiment_flat_145.wav,0,False,652,55,homme,5,0.355215,-134.972350
210968,64,1,2024-02-28T12:15:37.221Z,male_vraiment_flat_145.wav,0,False,652,55,homme,6,0.426259,-28.162434
210968,64,1,2024-02-28T12:15:37.221Z,male_vraiment_flat_139.wav,1,True,652,55,homme,0,0.000000,-131.535185
210968,64,1,2024-02-28T12:15:37.221Z,male_vraiment_flat_139.wav,1,True,652,55,homme,1,0.071043,-10.702864
210968,64,1,2024-02-28T12:15:37.221Z,male_vraiment_flat_139.wav,1,True,652,55,homme,2,0.142086,-8.370040
210968,64,1,2024-02-28T12:15:37.221Z,male_vraiment_flat_139.wav,1,True,652,55,homme,3,0.213129,83.706839
210968,64,1,2024-02-28T12:15:37.221Z,male_vraiment_flat_139.wav,1,True,652,55,homme,4,0.284172,-28.836111
210968,64,1,2024-02-28T12:15:37.221Z,male_vraiment_flat_139.wav,1,True,652,55,homme,5,0.355215,8.499607
210968,64,1,2024-02-28T12:15:37.221Z,male_vraiment_flat_139.wav,1,True,652,55,homme,6,0.426259,-85.859123
210968,65,1,2024-02-28T12:15:37.221Z,male_vraiment_flat_21.wav,0,False,846,55,homme,0,0.000000,84.422922
210968,65,1,2024-02-28T12:15:37.221Z,male_vraiment_flat_21.wav,0,False,846,55,homme,1,0.071043,34.734306
210968,65,1,2024-02-28T12:15:37.221Z,male_vraiment_flat_21.wav,0,False,846,55,homme,2,0.142086,84.348012
210968,65,1,2024-02-28T12:15:37.221Z,male_vraiment_flat_21.wav,0,False,846,55,homme,3,0.213129,-112.005491
210968,65,1,2024-02-28T12:15:37.221Z,male_vraiment_flat_21.wav,0,False,846,55,homme,4,0.284172,147.407394
210968,65,1,2024-02-28T12:15:37.221Z,male_vraiment_flat_21.wav,0,False,846,55,homme,5,0.355215,-6.622355
210968,65,1,2024-02-28T12:15:37.221Z,male_vraiment_flat_21.wav,0,False,846,55,homme,6,0.426259,125.674103
210968,65,1,2024-02-28T12:15:37.221Z,male_vraiment_flat_91.wav,1,True,846,55,homme,0,0.000000,58.982225
210968,65,1,2024-02-28T12:15:37.221Z,male_vraiment_flat_91.wav,1,True,846,55,homme,1,0.071043,126.482844
210968,65,1,2024-02-28T12:15:37.221Z,male_vraiment_flat_91.wav,1,True,846,55,homme,2,0.142086,-120.324305
210968,65,1,2024-02-28T12:15:37.221Z,male_vraiment_flat_91.wav,1,True,846,55,homme,3,0.213129,54.493295
210968,65,1,2024-02-28T12:15:37.221Z,male_vraiment_flat_91.wav,1,True,846,55,homme,4,0.284172,74.680181
210968,65,1,2024-02-28T12:15:37.221Z,male_vraiment_flat_91.wav,1,True,846,55,homme,5,0.355215,99.124880
210968,65,1,2024-02-28T12:15:37.221Z,male_vraiment_flat_91.wav,1,True,846,55,homme,6,0.426259,-32.505202
210968,66,1,2024-02-28T12:15:37.221Z,male_vraiment_flat_102.wav,0,True,764,55,homme,0,0.000000,-40.599677
210968,66,1,2024-02-28T12:15:37.221Z,male_vraiment_flat_102.wav,0,True,764,55,homme,1,0.071043,73.648850
210968,66,1,2024-02-28T12:15:37.221Z,male_vraiment_flat_102.wav,0,True,764,55,homme,2,0.142086,15.923898
210968,66,1,2024-02-28T12:15:37.221Z,male_vraiment_flat_102.wav,0,True,764,55,homme,3,0.213129,-109.098836
210968,66,1,2024-02-28T12:15:37.221Z,male_vraiment_flat_102.wav,0,True,764,55,homme,4,0.284172,134.536605
210968,66,1,2024-02-28T12:15:37.221Z,male_vraiment_flat_102.wav,0,True,764,55,homme,5,0.355215,127.784516
210968,66,1,2024-02-28T12:15:37.221Z,male_vraiment_flat_102.wav,0,True,764,55,homme,6,0.426259,-136.569602
210968,66,1,2024-02-28T12:15:37.221Z,male_vraiment_flat_11.wav,1,False,764,55,homme,0,0.000000,106.632802
210968,66,1,2024-02-28T12:15:37.221Z,male_vraiment_flat_11.wav,1,False,764,55,homme,1,0.071043,30.235531
210968,66,1,2024-02-28T12:15:37.221Z,male_vraiment_flat_11.wav,1,False,764,55,homme,2,0.142086,-31.934811
210968,66,1,2024-02-28T12:15:37.221Z,male_vraiment_flat_11.wav,1,False,764,55,homme,3,0.213129,-70.817469
210968,66,1,2024-02-28T12:15:37.221Z,male_vraiment_flat_11.wav,1,False,764,55,homme,4,0.284172,-134.947845
210968,66,1,2024-02-28T12:15:37.221Z,male_vraiment_flat_11.wav,1,False,764,55,homme,5,0.355215,-61.866249
210968,66,1,2024-02-28T12:15:37.221Z,male_vraiment_flat_11.wav,1,False,764,55,homme,6,0.426259,61.370028
210968,67,1,2024-02-28T12:15:37.221Z,male_vraiment_flat_158.wav,0,False,636,55,homme,0,0.000000,140.907348
210968,67,1,2024-02-28T12:15:37.221Z,male_vraiment_flat_158.wav,0,False,636,55,homme,1,0.071043,56.647301
210968,67,1,2024-02-28T12:15:37.221Z,male_vraiment_flat_158.wav,0,False,636,55,homme,2,0.142086,-121.852756
210968,67,1,2024-02-28T12:15:37.221Z,male_vraiment_flat_158.wav,0,False,636,55,homme,3,0.213129,24.887877
