subj,trial,block,date,stim,stim_order,response,rt,age,sex,param_index,segment_time,pitch
rcot,0,0,2024-02-26T16:56:05.593Z,male_vraiment_flat_194.wav,0,True,6357,53,m,0,0.000000,104.124735
rcot,0,0,2024-02-26T16:56:05.593Z,male_vraiment_flat_194.wav,0,True,6357,53,m,1,0.071043,-92.067392
rcot,0,0,2024-02-26T16:56:05.593Z,male_vraiment_flat_194.wav,0,True,6357,53,m,2,0.142086,-108.808255
rcot,0,0,2024-02-26T16:56:05.593Z,male_vraiment_flat_194.wav,0,True,6357,53,m,3,0.213129,99.267416
rcot,0,0,2024-02-26T16:56:05.593Z,male_vraiment_flat_194.wav,0,True,6357,53,m,4,0.284172,-26.685302
rcot,0,0,2024-02-26T16:56:05.593Z,male_vraiment_flat_194.wav,0,True,6357,53,m,5,0.355215,97.824367
rcot,0,0,2024-02-26T16:56:05.593Z,male_vraiment_flat_194.wav,0,True,6357,53,m,6,0.426259,-69.402109
rcot,0,0,2024-02-26T16:56:05.593Z,male_vraiment_flat_151.wav,1,False,6357,53,m,0,0.000000,-67.748525
rcot,0,0,2024-02-26T16:56:05.593Z,male_vraiment_flat_151.wav,1,False,6357,53,m,1,0.071043,54.361913
rcot,0,0,2024-02-26T16:56:05.593Z,male_vraiment_flat_151.wav,1,False,6357,53,m,2,0.142086,-48.392138
rcot,0,0,2024-02-26T16:56:05.593Z,male_vraiment_flat_151.wav,1,False,6357,53,m,3,0.213129,35.257299
rcot,0,0,2024-02-26T16:56:05.593Z,male_vraiment_flat_151.wav,1,False,6357,53,m,4,0.284172,30.428121
rcot,0,0,2024-02-26T16:56:05.593Z,male_vraiment_flat_151.wav,1,False,6357,53,m,5,0.355215,28.910983
rcot,0,0,2024-02-26T16:56:05.593Z,male_vraiment_flat_151.wav,1,False,6357,53,m,6,0.426259,-22.593444
rcot,1,0,2024-02-26T16:56:05.593Z,male_vraiment_flat_116.wav,0,False,3194,53,m,0,0.000000,-80.686828
rcot,1,0,2024-02-26T16:56:05.593Z,male_vraiment_flat_116.wav,0,False,3194,53,m,1,0.071043,-31.189533
rcot,1,0,2024-02-26T16:56:05.593Z,male_vraiment_flat_116.wav,0,False,3194,53,m,2,0.142086,-144.914474
rcot,1,0,2024-02-26T16:56:05.593Z,male_vraiment_flat_116.wav,0,False,3194,53,m,3,0.213129,-49.653212
rcot,1,0,2024-02-26T16:56:05.593Z,male_vraiment_flat_116.wav,0,False,3194,53,m,4,0.284172,-94.646547
rcot,1,0,2024-02-26T16:56:05.593Z,male_vraiment_flat_116.wav,0,False,3194,53,m,5,0.355215,-38.055332
rcot,1,0,2024-02-26T16:56:05.593Z,male_vraiment_flat_116.wav,0,False,3194,53,m,6,0.426259,-90.510946
rcot,1,0,2024-02-26T16:56:05.593Z,male_vraiment_flat_179.wav,1,True,3194,53,m,0,0.000000,31.793897
rcot,1,0,2024-02-26T16:56:05.593Z,male_vraiment_flat_179.wav,1,True,3194,53,m,1,0.071043,-7.766660
rcot,1,0,2024-02-26T16:56:05.593Z,male_vraiment_flat_179.wav,1,True,3194,53,m,2,0.142086,14.202215
rcot,1,0,2024-02-26T16:56:05.593Z,male_vraiment_flat_179.wav,1,True,3194,53,m,3,0.213129,-28.726082
rcot,1,0,2024-02-26T16:56:05.593Z,male_vraiment_flat_179.wav,1,True,3194,53,m,4,0.284172,-38.298342
rcot,1,0,2024-02-26T16:56:05.593Z,male_vraiment_flat_179.wav,1,True,3194,53,m,5,0.355215,97.025797
rcot,1,0,2024-02-26T16:56:05.593Z,male_vraiment_flat_179.wav,1,True,3194,53,m,6,0.426259,-148.112175
rcot,2,0,2024-02-26T16:56:05.593Z,male_vraiment_flat_184.wav,0,False,3935,53,m,0,0.000000,86.245131
rcot,2,0,2024-02-26T16:56:05.593Z,male_vraiment_flat_184.wav,0,False,3935,53,m,1,0.071043,106.604050
rcot,2,0,2024-02-26T16:56:05.593Z,male_vraiment_flat_184.wav,0,False,3935,53,m,2,0.142086,-48.425154
rcot,2,0,2024-02-26T16:56:05.593Z,male_vraiment_flat_184.wav,0,False,3935,53,m,3,0.213129,48.927001
rcot,2,0,2024-02-26T16:56:05.593Z,male_vraiment_flat_184.wav,0,False,3935,53,m,4,0.284172,-82.972934
rcot,2,0,2024-02-26T16:56:05.593Z,male_vraiment_flat_184.wav,0,False,3935,53,m,5,0.355215,73.552976
rcot,2,0,2024-02-26T16:56:05.593Z,male_vraiment_flat_184.wav,0,False,3935,53,m,6,0.426259,-131.359115
rcot,2,0,2024-02-26T16:56:05.593Z,male_vraiment_flat_74.wav,1,True,3935,53,m,0,0.000000,71.293232
rcot,2,0,2024-02-26T16:56:05.593Z,male_vraiment_flat_74.wav,1,True,3935,53,m,1,0.071043,32.860121
rcot,2,0,2024-02-26T16:56:05.593Z,male_vraiment_flat_74.wav,1,True,3935,53,m,2,0.142086,-85.825735
rcot,2,0,2024-02-26T16:56:05.593Z,male_vraiment_flat_74.wav,1,True,3935,53,m,3,0.213129,70.628085
rcot,2,0,2024-02-26T16:56:05.593Z,male_vraiment_flat_74.wav,1,True,3935,53,m,4,0.284172,126.928038
rcot,2,0,2024-02-26T16:56:05.593Z,male_vraiment_flat_74.wav,1,True,3935,53,m,5,0.355215,120.083362
rcot,2,0,2024-02-26T16:56:05.593Z,male_vraiment_flat_74.wav,1,True,3935,53,m,6,0.426259,92.661740
rcot,3,0,2024-02-26T16:56:05.593Z,male_vraiment_flat_79.wav,0,False,5513,53,m,0,0.000000,-102.946331
rcot,3,0,2024-02-26T16:56:05.593Z,male_vraiment_flat_79.wav,0,False,5513,53,m,1,0.071043,143.002978
rcot,3,0,2024-02-26T16:56:05.593Z,male_vraiment_flat_79.wav,0,False,5513,53,m,2,0.142086,-77.255333
rcot,3,0,2024-02-26T16:56:05.593Z,male_vraiment_flat_79.wav,0,False,5513,53,m,3,0.213129,139.308503
rcot,3,0,2024-02-26T16:56:05.593Z,male_vraiment_flat_79.wav,0,False,5513,53,m,4,0.284172,53.797207
rcot,3,0,2024-02-26T16:56:05.593Z,male_vraiment_flat_79.wav,0,False,5513,53,m,5,0.355215,-97.855801
rcot,3,0,2024-02-26T16:56:05.593Z,male_vraiment_flat_79.wav,0,False,5513,53,m,6,0.426259,15.451057
rcot,3,0,2024-02-26T16:56:05.593Z,male_vraiment_flat_4.wav,1,True,5513,53,m,0,0.000000,98.226066
rcot,3,0,2024-02-26T16:56:05.593Z,male_vraiment_flat_4.wav,1,True,5513,53,m,1,0.071043,119.322928
rcot,3,0,2024-02-26T16:56:05.593Z,male_vraiment_flat_4.wav,1,True,5513,53,m,2,0.142086,-139.339853
rcot,3,0,2024-02-26T16:56:05.593Z,male_vraiment_flat_4.wav,1,True,5513,53,m,3,0.213129,-46.932317
rcot,3,0,2024-02-26T16:56:05.593Z,male_vraiment_flat_4.wav,1,True,5513,53,m,4,0.284172,-13.288809
rcot,3,0,2024-02-26T16:56:05.593Z,male_vraiment_flat_4.wav,1,True,5513,53,m,5,0.355215,94.861826
rcot,3,0,2024-02-26T16:56:05.593Z,male_vraiment_flat_4.wav,1,True,5513,53,m,6,0.426259,-84.397607
rcot,4,0,2024-02-26T16:56:05.593Z,male_vraiment_flat_185.wav,0,False,15312,53,m,0,0.000000,7.537788
rcot,4,0,2024-02-26T16:56:05.593Z,male_vraiment_flat_185.wav,0,False,15312,53,m,1,0.071043,138.761382
rcot,4,0,2024-02-26T16:56:05.593Z,male_vraiment_flat_185.wav,0,False,15312,53,m,2,0.142086,88.970452
rcot,4,0,2024-02-26T16:56:05.593Z,male_vraiment_flat_185.wav,0,False,15312,53,m,3,0.213129,-106.980409
rcot,4,0,2024-02-26T16:56:05.593Z,male_vraiment_flat_185.wav,0,False,15312,53,m,4,0.284172,-72.334155
rcot,4,0,2024-02-26T16:56:05.593Z,male_vraiment_flat_185.wav,0,False,15312,53,m,5,0.355215,87.356426
rcot,4,0,2024-02-26T16:56:05.593Z,male_vraiment_flat_185.wav,0,False,15312,53,m,6,0.426259,90.917936
rcot,4,0,2024-02-26T16:56:05.593Z,male_vraiment_flat_197.wav,1,True,15312,53,m,0,0.000000,7.012988
rcot,4,0,2024-02-26T16:56:05.593Z,male_vraiment_flat_197.wav,1,True,15312,53,m,1,0.071043,64.551185
rcot,4,0,2024-02-26T16:56:05.593Z,male_vraiment_flat_197.wav,1,True,15312,53,m,2,0.142086,-65.392523
rcot,4,0,2024-02-26T16:56:05.593Z,male_vraiment_flat_197.wav,1,True,15312,53,m,3,0.213129,18.180118
rcot,4,0,2024-02-26T16:56:05.593Z,male_vraiment_flat_197.wav,1,True,15312,53,m,4,0.284172,-30.775220
rcot,4,0,2024-02-26T16:56:05.593Z,male_vraiment_flat_197.wav,1,True,15312,53,m,5,0.355215,95.802549
rcot,4,0,2024-02-26T16:56:05.593Z,male_vraiment_flat_197.wav,1,True,15312,53,m,6,0.426259,-129.373786
rcot,5,0,2024-02-26T16:56:05.593Z,male_vraiment_flat_159.wav,0,True,895,53,m,0,0.000000,-84.088119
rcot,5,0,2024-02-26T16:56:05.593Z,male_vraiment_flat_159.wav,0,True,895,53,m,1,0.071043,11.677970
rcot,5,0,2024-02-26T16:56:05.593Z,male_vraiment_flat_159.wav,0,True,895,53,m,2,0.142086,70.948823
rcot,5,0,2024-02-26T16:56:05.593Z,male_vraiment_flat_159.wav,0,True,895,53,m,3,0.213129,101.030552
rcot,5,0,2024-02-26T16:56:05.593Z,male_vraiment_flat_159.wav,0,True,895,53,m,4,0.284172,35.233409
rcot,5,0,2024-02-26T16:56:05.593Z,male_vraiment_flat_159.wav,0,True,895,53,m,5,0.355215,70.014692
rcot,5,0,2024-02-26T16:56:05.593Z,male_vraiment_flat_159.wav,0,True,895,53,m,6,0.426259,-21.284009
rcot,5,0,2024-02-26T16:56:05.593Z,male_vraiment_flat_0.wav,1,False,895,53,m,0,0.000000,9.896041
rcot,5,0,2024-02-26T16:56:05.593Z,male_vraiment_flat_0.wav,1,False,895,53,m,1,0.071043,101.528400
rcot,5,0,2024-02-26T16:56:05.593Z,male_vraiment_flat_0.wav,1,False,895,53,m,2,0.142086,-68.097850
rcot,5,0,2024-02-26T16:56:05.593Z,male_vraiment_flat_0.wav,1,False,895,53,m,3,0.213129,-142.658303
rcot,5,0,2024-02-26T16:56:05.593Z,male_vraiment_flat_0.wav,1,False,895,53,m,4,0.284172,-120.248224
rcot,5,0,2024-02-26T16:56:05.593Z,male_vraiment_flat_0.wav,1,False,895,53,m,5,0.355215,31.293845
rcot,5,0,2024-02-26T16:56:05.593Z,male_vraiment_flat_0.wav,1,False,895,53,m,6,0.426259,-137.250528
rcot,6,0,2024-02-26T16:56:05.593Z,male_vraiment_flat_25.wav,0,True,3126,53,m,0,0.000000,-129.422108
rcot,6,0,2024-02-26T16:56:05.593Z,male_vraiment_flat_25.wav,0,True,3126,53,m,1,0.071043,-12.331663
rcot,6,0,2024-02-26T16:56:05.593Z,male_vraiment_flat_25.wav,0,True,3126,53,m,2,0.142086,-97.065740
rcot,6,0,2024-02-26T16:56:05.593Z,male_vraiment_flat_25.wav,0,True,3126,53,m,3,0.213129,-6.253122
rcot,6,0,2024-02-26T16:56:05.593Z,male_vraiment_flat_25.wav,0,True,3126,53,m,4,0.284172,31.933743
rcot,6,0,2024-02-26T16:56:05.593Z,male_vraiment_flat_25.wav,0,True,3126,53,m,5,0.355215,-58.415946
rcot,6,0,2024-02-26T16:56:05.593Z,male_vraiment_flat_25.wav,0,True,3126,53,m,6,0.426259,117.143598
rcot,6,0,2024-02-26T16:56:05.593Z,male_vraiment_flat_18.wav,1,False,3126,53,m,0,0.000000,-126.424441
rcot,6,0,2024-02-26T16:56:05.593Z,male_vraiment_flat_18.wav,1,False,3126,53,m,1,0.071043,-57.286238
rcot,6,0,2024-02-26T16:56:05.593Z,male_vraiment_flat_18.wav,1,False,3126,53,m,2,0.142086,14.494248
rcot,6,0,2024-02-26T16:56:05.593Z,male_vraiment_flat_18.wav,1,False,3126,53,m,3,0.213129,11.325267
rcot,6,0,2024-02-26T16:56:05.593Z,male_vraiment_flat_18.wav,1,False,3126,53,m,4,0.284172,-20.022709
rcot,6,0,2024-02-26T16:56:05.593Z,male_vraiment_flat_18.wav,1,False,3126,53,m,5,0.355215,-67.838631
rcot,6,0,2024-02-26T16:56:05.593Z,male_vraiment_flat_18.wav,1,False,3126,53,m,6,0.426259,-75.619086
rcot,7,0,2024-02-26T16:56:05.593Z,male_vraiment_flat_21.wav,0,True,3827,53,m,0,0.000000,84.422922
rcot,7,0,2024-02-26T16:56:05.593Z,male_vraiment_flat_21.wav,0,True,3827,53,m,1,0.071043,34.734306
rcot,7,0,2024-02-26T16:56:05.593Z,male_vraiment_flat_21.wav,0,True,3827,53,m,2,0.142086,84.348012
rcot,7,0,2024-02-26T16:56:05.593Z,male_vraiment_flat_21.wav,0,True,3827,53,m,3,0.213129,-112.005491
rcot,7,0,2024-02-26T16:56:05.593Z,male_vraiment_flat_21.wav,0,True,3827,53,m,4,0.284172,147.407394
rcot,7,0,2024-02-26T16:56:05.593Z,male_vraiment_flat_21.wav,0,True,3827,53,m,5,0.355215,-6.622355
rcot,7,0,2024-02-26T16:56:05.593Z,male_vraiment_flat_21.wav,0,True,3827,53,m,6,0.426259,125.674103
rcot,7,0,2024-02-26T16:56:05.593Z,male_vraiment_flat_84.wav,1,False,3827,53,m,0,0.000000,79.222174
rcot,7,0,2024-02-26T16:56:05.593Z,male_vraiment_flat_84.wav,1,False,3827,53,m,1,0.071043,61.816109
rcot,7,0,2024-02-26T16:56:05.593Z,male_vraiment_flat_84.wav,1,False,3827,53,m,2,0.142086,-111.712238
rcot,7,0,2024-02-26T16:56:05.593Z,male_vraiment_flat_84.wav,1,False,3827,53,m,3,0.213129,96.584947
rcot,7,0,2024-02-26T16:56:05.593Z,male_vraiment_flat_84.wav,1,False,3827,53,m,4,0.284172,-11.292098
rcot,7,0,2024-02-26T16:56:05.593Z,male_vraiment_flat_84.wav,1,False,3827,53,m,5,0.355215,57.720124
rcot,7,0,2024-02-26T16:56:05.593Z,male_vraiment_flat_84.wav,1,False,3827,53,m,6,0.426259,-122.021307
rcot,8,0,2024-02-26T16:56:05.593Z,male_vraiment_flat_149.wav,0,True,2000,53,m,0,0.000000,17.402596
rcot,8,0,2024-02-26T16:56:05.593Z,male_vraiment_flat_149.wav,0,True,2000,53,m,1,0.071043,-44.390985
rcot,8,0,2024-02-26T16:56:05.593Z,male_vraiment_flat_149.wav,0,True,2000,53,m,2,0.142086,-32.370244
rcot,8,0,2024-02-26T16:56:05.593Z,male_vraiment_flat_149.wav,0,True,2000,53,m,3,0.213129,33.896100
rcot,8,0,2024-02-26T16:56:05.593Z,male_vraiment_flat_149.wav,0,True,2000,53,m,4,0.284172,130.098177
rcot,8,0,2024-02-26T16:56:05.593Z,male_vraiment_flat_149.wav,0,True,2000,53,m,5,0.355215,-117.346579
rcot,8,0,2024-02-26T16:56:05.593Z,male_vraiment_flat_149.wav,0,True,2000,53,m,6,0.426259,65.375118
rcot,8,0,2024-02-26T16:56:05.593Z,male_vraiment_flat_164.wav,1,False,2000,53,m,0,0.000000,-99.029475
rcot,8,0,2024-02-26T16:56:05.593Z,male_vraiment_flat_164.wav,1,False,2000,53,m,1,0.071043,-83.219544
rcot,8,0,2024-02-26T16:56:05.593Z,male_vraiment_flat_164.wav,1,False,2000,53,m,2,0.142086,-76.160804
rcot,8,0,2024-02-26T16:56:05.593Z,male_vraiment_flat_164.wav,1,False,2000,53,m,3,0.213129,-60.412119
rcot,8,0,2024-02-26T16:56:05.593Z,male_vraiment_flat_164.wav,1,False,2000,53,m,4,0.284172,-135.438027
rcot,8,0,2024-02-26T16:56:05.593Z,male_vraiment_flat_164.wav,1,False,2000,53,m,5,0.355215,-30.546522
rcot,8,0,2024-02-26T16:56:05.593Z,male_vraiment_flat_164.wav,1,False,2000,53,m,6,0.426259,-142.367635
rcot,9,0,2024-02-26T16:56:05.593Z,male_vraiment_flat_36.wav,0,True,777,53,m,0,0.000000,-33.837960
rcot,9,0,2024-02-26T16:56:05.593Z,male_vraiment_flat_36.wav,0,True,777,53,m,1,0.071043,102.134309
rcot,9,0,2024-02-26T16:56:05.593Z,male_vraiment_flat_36.wav,0,True,777,53,m,2,0.142086,100.949665
rcot,9,0,2024-02-26T16:56:05.593Z,male_vraiment_flat_36.wav,0,True,777,53,m,3,0.213129,77.352428
rcot,9,0,2024-02-26T16:56:05.593Z,male_vraiment_flat_36.wav,0,True,777,53,m,4,0.284172,-1.995321
rcot,9,0,2024-02-26T16:56:05.593Z,male_vraiment_flat_36.wav,0,True,777,53,m,5,0.355215,-13.382838
rcot,9,0,2024-02-26T16:56:05.593Z,male_vraiment_flat_36.wav,0,True,777,53,m,6,0.426259,-42.807835
rcot,9,0,2024-02-26T16:56:05.593Z,male_vraiment_flat_183.wav,1,False,777,53,m,0,0.000000,102.527130
rcot,9,0,2024-02-26T16:56:05.593Z,male_vraiment_flat_183.wav,1,False,777,53,m,1,0.071043,114.037020
rcot,9,0,2024-02-26T16:56:05.593Z,male_vraiment_flat_183.wav,1,False,777,53,m,2,0.142086,-45.723055
rcot,9,0,2024-02-26T16:56:05.593Z,male_vraiment_flat_183.wav,1,False,777,53,m,3,0.213129,-109.210749
rcot,9,0,2024-02-26T16:56:05.593Z,male_vraiment_flat_183.wav,1,False,777,53,m,4,0.284172,-29.266312
rcot,9,0,2024-02-26T16:56:05.593Z,male_vraiment_flat_183.wav,1,False,777,53,m,5,0.355215,-77.798514
rcot,9,0,2024-02-26T16:56:05.593Z,male_vraiment_flat_183.wav,1,False,777,53,m,6,0.426259,-133.179439
rcot,10,0,2024-02-26T16:56:05.593Z,male_vraiment_flat_153.wav,0,True,3573,53,m,0,0.000000,-62.105340
rcot,10,0,2024-02-26T16:56:05.593Z,male_vraiment_flat_153.wav,0,True,3573,53,m,1,0.071043,-52.997588
rcot,10,0,2024-02-26T16:56:05.593Z,male_vraiment_flat_153.wav,0,True,3573,53,m,2,0.142086,-76.077591
rcot,10,0,2024-02-26T16:56:05.593Z,male_vraiment_flat_153.wav,0,True,3573,53,m,3,0.213129,-18.807121
rcot,10,0,2024-02-26T16:56:05.593Z,male_vraiment_flat_153.wav,0,True,3573,53,m,4,0.284172,-115.396331
rcot,10,0,2024-02-26T16:56:05.593Z,male_vraiment_flat_153.wav,0,True,3573,53,m,5,0.355215,-128.292537
rcot,10,0,2024-02-26T16:56:05.593Z,male_vraiment_flat_153.wav,0,True,3573,53,m,6,0.426259,-78.650880
rcot,10,0,2024-02-26T16:56:05.593Z,male_vraiment_flat_2.wav,1,False,3573,53,m,0,0.000000,-26.280713
rcot,10,0,2024-02-26T16:56:05.593Z,male_vraiment_flat_2.wav,1,False,3573,53,m,1,0.071043,83.932106
rcot,10,0,2024-02-26T16:56:05.593Z,male_vraiment_flat_2.wav,1,False,3573,53,m,2,0.142086,59.369452
rcot,10,0,2024-02-26T16:56:05.593Z,male_vraiment_flat_2.wav,1,False,3573,53,m,3,0.213129,8.881156
rcot,10,0,2024-02-26T16:56:05.593Z,male_vraiment_flat_2.wav,1,False,3573,53,m,4,0.284172,3.498385
rcot,10,0,2024-02-26T16:56:05.593Z,male_vraiment_flat_2.wav,1,False,3573,53,m,5,0.355215,-133.430007
rcot,10,0,2024-02-26T16:56:05.593Z,male_vraiment_flat_2.wav,1,False,3573,53,m,6,0.426259,94.606197
rcot,11,0,2024-02-26T16:56:05.593Z,male_vraiment_flat_125.wav,0,True,1294,53,m,0,0.000000,-40.862052
rcot,11,0,2024-02-26T16:56:05.593Z,male_vraiment_flat_125.wav,0,True,1294,53,m,1,0.071043,93.193290
rcot,11,0,2024-02-26T16:56:05.593Z,male_vraiment_flat_125.wav,0,True,1294,53,m,2,0.142086,71.046063
rcot,11,0,2024-02-26T16:56:05.593Z,male_vraiment_flat_125.wav,0,True,1294,53,m,3,0.213129,-144.093496
rcot,11,0,2024-02-26T16:56:05.593Z,male_vraiment_flat_125.wav,0,True,1294,53,m,4,0.284172,-1.218193
rcot,11,0,2024-02-26T16:56:05.593Z,male_vraiment_flat_125.wav,0,True,1294,53,m,5,0.355215,94.223966
rcot,11,0,2024-02-26T16:56:05.593Z,male_vraiment_flat_125.wav,0,True,1294,53,m,6,0.426259,-56.349938
rcot,11,0,2024-02-26T16:56:05.593Z,male_vraiment_flat_148.wav,1,False,1294,53,m,0,0.000000,-84.148504
rcot,11,0,2024-02-26T16:56:05.593Z,male_vraiment_flat_148.wav,1,False,1294,53,m,1,0.071043,116.395609
rcot,11,0,2024-02-26T16:56:05.593Z,male_vraiment_flat_148.wav,1,False,1294,53,m,2,0.142086,22.272455
rcot,11,0,2024-02-26T16:56:05.593Z,male_vraiment_flat_148.wav,1,False,1294,53,m,3,0.213129,-42.662376
rcot,11,0,2024-02-26T16:56:05.593Z,male_vraiment_flat_148.wav,1,False,1294,53,m,4,0.284172,44.974228
rcot,11,0,2024-02-26T16:56:05.593Z,male_vraiment_flat_148.wav,1,False,1294,53,m,5,0.355215,-100.807841
rcot,11,0,2024-02-26T16:56:05.593Z,male_vraiment_flat_148.wav,1,False,1294,53,m,6,0.426259,75.062158
rcot,12,0,2024-02-26T16:56:05.593Z,male_vraiment_flat_81.wav,0,True,2411,53,m,0,0.000000,35.884214
rcot,12,0,2024-02-26T16:56:05.593Z,male_vraiment_flat_81.wav,0,True,2411,53,m,1,0.071043,19.404831
rcot,12,0,2024-02-26T16:56:05.593Z,male_vraiment_flat_81.wav,0,True,2411,53,m,2,0.142086,121.693264
rcot,12,0,2024-02-26T16:56:05.593Z,male_vraiment_flat_81.wav,0,True,2411,53,m,3,0.213129,29.127429
rcot,12,0,2024-02-26T16:56:05.593Z,male_vraiment_flat_81.wav,0,True,2411,53,m,4,0.284172,71.322417
rcot,12,0,2024-02-26T16:56:05.593Z,male_vraiment_flat_81.wav,0,True,2411,53,m,5,0.355215,138.687922
rcot,12,0,2024-02-26T16:56:05.593Z,male_vraiment_flat_81.wav,0,True,2411,53,m,6,0.426259,110.537915
rcot,12,0,2024-02-26T16:56:05.593Z,male_vraiment_flat_150.wav,1,False,2411,53,m,0,0.000000,-0.845919
rcot,12,0,2024-02-26T16:56:05.593Z,male_vraiment_flat_150.wav,1,False,2411,53,m,1,0.071043,-101.665398
rcot,12,0,2024-02-26T16:56:05.593Z,male_vraiment_flat_150.wav,1,False,2411,53,m,2,0.142086,-128.909269
rcot,12,0,2024-02-26T16:56:05.593Z,male_vraiment_flat_150.wav,1,False,2411,53,m,3,0.213129,-98.956601
rcot,12,0,2024-02-26T16:56:05.593Z,male_vraiment_flat_150.wav,1,False,2411,53,m,4,0.284172,-120.693020
rcot,12,0,2024-02-26T16:56:05.593Z,male_vraiment_flat_150.wav,1,False,2411,53,m,5,0.355215,-126.286795
rcot,12,0,2024-02-26T16:56:05.593Z,male_vraiment_flat_150.wav,1,False,2411,53,m,6,0.426259,121.368949
rcot,13,0,2024-02-26T16:56:05.593Z,male_vraiment_flat_19.wav,0,False,959,53,m,0,0.000000,-23.596543
rcot,13,0,2024-02-26T16:56:05.593Z,male_vraiment_flat_19.wav,0,False,959,53,m,1,0.071043,-71.824414
rcot,13,0,2024-02-26T16:56:05.593Z,male_vraiment_flat_19.wav,0,False,959,53,m,2,0.142086,88.506579
rcot,13,0,2024-02-26T16:56:05.593Z,male_vraiment_flat_19.wav,0,False,959,53,m,3,0.213129,-79.935804
rcot,13,0,2024-02-26T16:56:05.593Z,male_vraiment_flat_19.wav,0,False,959,53,m,4,0.284172,97.974212
rcot,13,0,2024-02-26T16:56:05.593Z,male_vraiment_flat_19.wav,0,False,959,53,m,5,0.355215,-89.439384
rcot,13,0,2024-02-26T16:56:05.593Z,male_vraiment_flat_19.wav,0,False,959,53,m,6,0.426259,-131.198163
rcot,13,0,2024-02-26T16:56:05.593Z,male_vraiment_flat_160.wav,1,True,959,53,m,0,0.000000,21.342691
rcot,13,0,2024-02-26T16:56:05.593Z,male_vraiment_flat_160.wav,1,True,959,53,m,1,0.071043,-76.780347
rcot,13,0,2024-02-26T16:56:05.593Z,male_vraiment_flat_160.wav,1,True,959,53,m,2,0.142086,-127.843887
rcot,13,0,2024-02-26T16:56:05.593Z,male_vraiment_flat_160.wav,1,True,959,53,m,3,0.213129,-126.126744
rcot,13,0,2024-02-26T16:56:05.593Z,male_vraiment_flat_160.wav,1,True,959,53,m,4,0.284172,-33.722090
rcot,13,0,2024-02-26T16:56:05.593Z,male_vraiment_flat_160.wav,1,True,959,53,m,5,0.355215,18.600024
rcot,13,0,2024-02-26T16:56:05.593Z,male_vraiment_flat_160.wav,1,True,959,53,m,6,0.426259,-57.157597
rcot,14,0,2024-02-26T16:56:05.593Z,male_vraiment_flat_139.wav,0,True,6561,53,m,0,0.000000,-131.535185
rcot,14,0,2024-02-26T16:56:05.593Z,male_vraiment_flat_139.wav,0,True,6561,53,m,1,0.071043,-10.702864
rcot,14,0,2024-02-26T16:56:05.593Z,male_vraiment_flat_139.wav,0,True,6561,53,m,2,0.142086,-8.370040
rcot,14,0,2024-02-26T16:56:05.593Z,male_vraiment_flat_139.wav,0,True,6561,53,m,3,0.213129,83.706839
rcot,14,0,2024-02-26T16:56:05.593Z,male_vraiment_flat_139.wav,0,True,6561,53,m,4,0.284172,-28.836111
rcot,14,0,2024-02-26T16:56:05.593Z,male_vraiment_flat_139.wav,0,True,6561,53,m,5,0.355215,8.499607
rcot,14,0,2024-02-26T16:56:05.593Z,male_vraiment_flat_139.wav,0,True,6561,53,m,6,0.426259,-85.859123
rcot,14,0,2024-02-26T16:56:05.593Z,male_vraiment_flat_23.wav,1,False,6561,53,m,0,0.000000,27.345676
rcot,14,0,2024-02-26T16:56:05.593Z,male_vraiment_flat_23.wav,1,False,6561,53,m,1,0.071043,118.378449
rcot,14,0,2024-02-26T16:56:05.593Z,male_vraiment_flat_23.wav,1,False,6561,53,m,2,0.142086,35.467907
rcot,14,0,2024-02-26T16:56:05.593Z,male_vraiment_flat_23.wav,1,False,6561,53,m,3,0.213129,-5.979973
rcot,14,0,2024-02-26T16:56:05.593Z,male_vraiment_flat_23.wav,1,False,6561,53,m,4,0.284172,18.578162
rcot,14,0,2024-02-26T16:56:05.593Z,male_vraiment_flat_23.wav,1,False,6561,53,m,5,0.355215,-9.540782
rcot,14,0,2024-02-26T16:56:05.593Z,male_vraiment_flat_23.wav,1,False,6561,53,m,6,0.426259,-13.092534
rcot,15,0,2024-02-26T16:56:05.593Z,male_vraiment_flat_94.wav,0,False,1191,53,m,0,0.000000,-0.652128
rcot,15,0,2024-02-26T16:56:05.593Z,male_vraiment_flat_94.wav,0,False,1191,53,m,1,0.071043,97.860897
rcot,15,0,2024-02-26T16:56:05.593Z,male_vraiment_flat_94.wav,0,False,1191,53,m,2,0.142086,48.932214
rcot,15,0,2024-02-26T16:56:05.593Z,male_vraiment_flat_94.wav,0,False,1191,53,m,3,0.213129,-23.097711
rcot,15,0,2024-02-26T16:56:05.593Z,male_vraiment_flat_94.wav,0,False,1191,53,m,4,0.284172,-47.481676
rcot,15,0,2024-02-26T16:56:05.593Z,male_vraiment_flat_94.wav,0,False,1191,53,m,5,0.355215,-120.450621
rcot,15,0,2024-02-26T16:56:05.593Z,male_vraiment_flat_94.wav,0,False,1191,53,m,6,0.426259,-116.887604
rcot,15,0,2024-02-26T16:56:05.593Z,male_vraiment_flat_30.wav,1,True,1191,53,m,0,0.000000,32.600333
rcot,15,0,2024-02-26T16:56:05.593Z,male_vraiment_flat_30.wav,1,True,1191,53,m,1,0.071043,42.125884
rcot,15,0,2024-02-26T16:56:05.593Z,male_vraiment_flat_30.wav,1,True,1191,53,m,2,0.142086,124.172285
rcot,15,0,2024-02-26T16:56:05.593Z,male_vraiment_flat_30.wav,1,True,1191,53,m,3,0.213129,52.679052
rcot,15,0,2024-02-26T16:56:05.593Z,male_vraiment_flat_30.wav,1,True,1191,53,m,4,0.284172,-111.889461
rcot,15,0,2024-02-26T16:56:05.593Z,male_vraiment_flat_30.wav,1,True,1191,53,m,5,0.355215,64.478579
rcot,15,0,2024-02-26T16:56:05.593Z,male_vraiment_flat_30.wav,1,True,1191,53,m,6,0.426259,22.023880
rcot,16,0,2024-02-26T16:56:05.593Z,male_vraiment_flat_38.wav,0,False,563,53,m,0,0.000000,144.136513
rcot,16,0,2024-02-26T16:56:05.593Z,male_vraiment_flat_38.wav,0,False,563,53,m,1,0.071043,-64.103106
rcot,16,0,2024-02-26T16:56:05.593Z,male_vraiment_flat_38.wav,0,False,563,53,m,2,0.142086,-98.673112
rcot,16,0,2024-02-26T16:56:05.593Z,male_vraiment_flat_38.wav,0,False,563,53,m,3,0.213129,-23.920097
rcot,16,0,2024-02-26T16:56:05.593Z,male_vraiment_flat_38.wav,0,False,563,53,m,4,0.284172,-49.884553
rcot,16,0,2024-02-26T16:56:05.593Z,male_vraiment_flat_38.wav,0,False,563,53,m,5,0.355215,-104.927811
rcot,16,0,2024-02-26T16:56:05.593Z,male_vraiment_flat_38.wav,0,False,563,53,m,6,0.426259,133.075001
rcot,16,0,2024-02-26T16:56:05.593Z,male_vraiment_flat_27.wav,1,True,563,53,m,0,0.000000,-44.196026
rcot,16,0,2024-02-26T16:56:05.593Z,male_vraiment_flat_27.wav,1,True,563,53,m,1,0.071043,72.435582
rcot,16,0,2024-02-26T16:56:05.593Z,male_vraiment_flat_27.wav,1,True,563,53,m,2,0.142086,30.880154
rcot,16,0,2024-02-26T16:56:05.593Z,male_vraiment_flat_27.wav,1,True,563,53,m,3,0.213129,-98.055697
rcot,16,0,2024-02-26T16:56:05.593Z,male_vraiment_flat_27.wav,1,True,563,53,m,4,0.284172,83.700413
rcot,16,0,2024-02-26T16:56:05.593Z,male_vraiment_flat_27.wav,1,True,563,53,m,5,0.355215,23.865121
rcot,16,0,2024-02-26T16:56:05.593Z,male_vraiment_flat_27.wav,1,True,563,53,m,6,0.426259,-44.006115
rcot,17,0,2024-02-26T16:56:05.593Z,male_vraiment_flat_12.wav,0,True,482,53,m,0,0.000000,-11.936919
rcot,17,0,2024-02-26T16:56:05.593Z,male_vraiment_flat_12.wav,0,True,482,53,m,1,0.071043,-51.249998
rcot,17,0,2024-02-26T16:56:05.593Z,male_vraiment_flat_12.wav,0,True,482,53,m,2,0.142086,42.322915
rcot,17,0,2024-02-26T16:56:05.593Z,male_vraiment_flat_12.wav,0,True,482,53,m,3,0.213129,-19.839410
rcot,17,0,2024-02-26T16:56:05.593Z,male_vraiment_flat_12.wav,0,True,482,53,m,4,0.284172,46.127041
rcot,17,0,2024-02-26T16:56:05.593Z,male_vraiment_flat_12.wav,0,True,482,53,m,5,0.355215,34.596861
rcot,17,0,2024-02-26T16:56:05.593Z,male_vraiment_flat_12.wav,0,True,482,53,m,6,0.426259,143.594573
rcot,17,0,2024-02-26T16:56:05.593Z,male_vraiment_flat_58.wav,1,False,482,53,m,0,0.000000,-52.909251
rcot,17,0,2024-02-26T16:56:05.593Z,male_vraiment_flat_58.wav,1,False,482,53,m,1,0.071043,-4.560860
rcot,17,0,2024-02-26T16:56:05.593Z,male_vraiment_flat_58.wav,1,False,482,53,m,2,0.142086,-106.285240
rcot,17,0,2024-02-26T16:56:05.593Z,male_vraiment_flat_58.wav,1,False,482,53,m,3,0.213129,-64.474310
rcot,17,0,2024-02-26T16:56:05.593Z,male_vraiment_flat_58.wav,1,False,482,53,m,4,0.284172,-121.964639
rcot,17,0,2024-02-26T16:56:05.593Z,male_vraiment_flat_58.wav,1,False,482,53,m,5,0.355215,35.204504
rcot,17,0,2024-02-26T16:56:05.593Z,male_vraiment_flat_58.wav,1,False,482,53,m,6,0.426259,-7.933790
rcot,18,0,2024-02-26T16:56:05.593Z,male_vraiment_flat_133.wav,0,True,7621,53,m,0,0.000000,-33.116176
rcot,18,0,2024-02-26T16:56:05.593Z,male_vraiment_flat_133.wav,0,True,7621,53,m,1,0.071043,-79.722902
rcot,18,0,2024-02-26T16:56:05.593Z,male_vraiment_flat_133.wav,0,True,7621,53,m,2,0.142086,-0.174059
rcot,18,0,2024-02-26T16:56:05.593Z,male_vraiment_flat_133.wav,0,True,7621,53,m,3,0.213129,82.274364
rcot,18,0,2024-02-26T16:56:05.593Z,male_vraiment_flat_133.wav,0,True,7621,53,m,4,0.284172,-109.731995
rcot,18,0,2024-02-26T16:56:05.593Z,male_vraiment_flat_133.wav,0,True,7621,53,m,5,0.355215,-72.489270
rcot,18,0,2024-02-26T16:56:05.593Z,male_vraiment_flat_133.wav,0,True,7621,53,m,6,0.426259,11.511705
rcot,18,0,2024-02-26T16:56:05.593Z,male_vraiment_flat_83.wav,1,False,7621,53,m,0,0.000000,-23.907946
rcot,18,0,2024-02-26T16:56:05.593Z,male_vraiment_flat_83.wav,1,False,7621,53,m,1,0.071043,-0.791729
rcot,18,0,2024-02-26T16:56:05.593Z,male_vraiment_flat_83.wav,1,False,7621,53,m,2,0.142086,23.610634
rcot,18,0,2024-02-26T16:56:05.593Z,male_vraiment_flat_83.wav,1,False,7621,53,m,3,0.213129,-35.411923
rcot,18,0,2024-02-26T16:56:05.593Z,male_vraiment_flat_83.wav,1,False,7621,53,m,4,0.284172,101.109402
rcot,18,0,2024-02-26T16:56:05.593Z,male_vraiment_flat_83.wav,1,False,7621,53,m,5,0.355215,-51.929212
rcot,18,0,2024-02-26T16:56:05.593Z,male_vraiment_flat_83.wav,1,False,7621,53,m,6,0.426259,-104.958378
rcot,19,0,2024-02-26T16:56:05.593Z,male_vraiment_flat_93.wav,0,True,2540,53,m,0,0.000000,89.760217
rcot,19,0,2024-02-26T16:56:05.593Z,male_vraiment_flat_93.wav,0,True,2540,53,m,1,0.071043,18.591855
rcot,19,0,2024-02-26T16:56:05.593Z,male_vraiment_flat_93.wav,0,True,2540,53,m,2,0.142086,63.582537
rcot,19,0,2024-02-26T16:56:05.593Z,male_vraiment_flat_93.wav,0,True,2540,53,m,3,0.213129,147.491611
rcot,19,0,2024-02-26T16:56:05.593Z,male_vraiment_flat_93.wav,0,True,2540,53,m,4,0.284172,-113.128196
rcot,19,0,2024-02-26T16:56:05.593Z,male_vraiment_flat_93.wav,0,True,2540,53,m,5,0.355215,12.197118
rcot,19,0,2024-02-26T16:56:05.593Z,male_vraiment_flat_93.wav,0,True,2540,53,m,6,0.426259,-36.730637
rcot,19,0,2024-02-26T16:56:05.593Z,male_vraiment_flat_161.wav,1,False,2540,53,m,0,0.000000,108.108554
rcot,19,0,2024-02-26T16:56:05.593Z,male_vraiment_flat_161.wav,1,False,2540,53,m,1,0.071043,47.804173
rcot,19,0,2024-02-26T16:56:05.593Z,male_vraiment_flat_161.wav,1,False,2540,53,m,2,0.142086,-38.721105
rcot,19,0,2024-02-26T16:56:05.593Z,male_vraiment_flat_161.wav,1,False,2540,53,m,3,0.213129,108.595174
rcot,19,0,2024-02-26T16:56:05.593Z,male_vraiment_flat_161.wav,1,False,2540,53,m,4,0.284172,94.751032
rcot,19,0,2024-02-26T16:56:05.593Z,male_vraiment_flat_161.wav,1,False,2540,53,m,5,0.355215,-22.399732
rcot,19,0,2024-02-26T16:56:05.593Z,male_vraiment_flat_161.wav,1,False,2540,53,m,6,0.426259,88.139884
rcot,20,0,2024-02-26T16:56:05.593Z,male_vraiment_flat_103.wav,0,False,3641,53,m,0,0.000000,107.674069
rcot,20,0,2024-02-26T16:56:05.593Z,male_vraiment_flat_103.wav,0,False,3641,53,m,1,0.071043,149.413476
rcot,20,0,2024-02-26T16:56:05.593Z,male_vraiment_flat_103.wav,0,False,3641,53,m,2,0.142086,-1.049319
rcot,20,0,2024-02-26T16:56:05.593Z,male_vraiment_flat_103.wav,0,False,3641,53,m,3,0.213129,-7.353867
rcot,20,0,2024-02-26T16:56:05.593Z,male_vraiment_flat_103.wav,0,False,3641,53,m,4,0.284172,-2.169492
rcot,20,0,2024-02-26T16:56:05.593Z,male_vraiment_flat_103.wav,0,False,3641,53,m,5,0.355215,-94.854916
rcot,20,0,2024-02-26T16:56:05.593Z,male_vraiment_flat_103.wav,0,False,3641,53,m,6,0.426259,119.487430
rcot,20,0,2024-02-26T16:56:05.593Z,male_vraiment_flat_190.wav,1,True,3641,53,m,0,0.000000,-135.472764
rcot,20,0,2024-02-26T16:56:05.593Z,male_vraiment_flat_190.wav,1,True,3641,53,m,1,0.071043,-16.311165
rcot,20,0,2024-02-26T16:56:05.593Z,male_vraiment_flat_190.wav,1,True,3641,53,m,2,0.142086,-108.166759
rcot,20,0,2024-02-26T16:56:05.593Z,male_vraiment_flat_190.wav,1,True,3641,53,m,3,0.213129,-73.778410
rcot,20,0,2024-02-26T16:56:05.593Z,male_vraiment_flat_190.wav,1,True,3641,53,m,4,0.284172,-109.839915
rcot,20,0,2024-02-26T16:56:05.593Z,male_vraiment_flat_190.wav,1,True,3641,53,m,5,0.355215,2.895785
rcot,20,0,2024-02-26T16:56:05.593Z,male_vraiment_flat_190.wav,1,True,3641,53,m,6,0.426259,14.515822
rcot,21,0,2024-02-26T16:56:05.593Z,male_vraiment_flat_157.wav,0,False,1781,53,m,0,0.000000,20.473057
rcot,21,0,2024-02-26T16:56:05.593Z,male_vraiment_flat_157.wav,0,False,1781,53,m,1,0.071043,-103.427341
rcot,21,0,2024-02-26T16:56:05.593Z,male_vraiment_flat_157.wav,0,False,1781,53,m,2,0.142086,-58.670290
rcot,21,0,2024-02-26T16:56:05.593Z,male_vraiment_flat_157.wav,0,False,1781,53,m,3,0.213129,-88.181786
rcot,21,0,2024-02-26T16:56:05.593Z,male_vraiment_flat_157.wav,0,False,1781,53,m,4,0.284172,-145.892431
rcot,21,0,2024-02-26T16:56:05.593Z,male_vraiment_flat_157.wav,0,False,1781,53,m,5,0.355215,-121.197130
rcot,21,0,2024-02-26T16:56:05.593Z,male_vraiment_flat_157.wav,0,False,1781,53,m,6,0.426259,3.215116
rcot,21,0,2024-02-26T16:56:05.593Z,male_vraiment_flat_144.wav,1,True,1781,53,m,0,0.000000,-68.167624
rcot,21,0,2024-02-26T16:56:05.593Z,male_vraiment_flat_144.wav,1,True,1781,53,m,1,0.071043,-79.458647
rcot,21,0,2024-02-26T16:56:05.593Z,male_vraiment_flat_144.wav,1,True,1781,53,m,2,0.142086,-79.660425
rcot,21,0,2024-02-26T16:56:05.593Z,male_vraiment_flat_144.wav,1,True,1781,53,m,3,0.213129,60.124898
rcot,21,0,2024-02-26T16:56:05.593Z,male_vraiment_flat_144.wav,1,True,1781,53,m,4,0.284172,21.367664
rcot,21,0,2024-02-26T16:56:05.593Z,male_vraiment_flat_144.wav,1,True,1781,53,m,5,0.355215,44.158096
rcot,21,0,2024-02-26T16:56:05.593Z,male_vraiment_flat_144.wav,1,True,1781,53,m,6,0.426259,60.089593
rcot,22,0,2024-02-26T16:56:05.593Z,male_vraiment_flat_52.wav,0,True,2921,53,m,0,0.000000,-133.801400
rcot,22,0,2024-02-26T16:56:05.593Z,male_vraiment_flat_52.wav,0,True,2921,53,m,1,0.071043,34.189717
rcot,22,0,2024-02-26T16:56:05.593Z,male_vraiment_flat_52.wav,0,True,2921,53,m,2,0.142086,-145.714669
rcot,22,0,2024-02-26T16:56:05.593Z,male_vraiment_flat_52.wav,0,True,2921,53,m,3,0.213129,1.717896
rcot,22,0,2024-02-26T16:56:05.593Z,male_vraiment_flat_52.wav,0,True,2921,53,m,4,0.284172,99.036025
rcot,22,0,2024-02-26T16:56:05.593Z,male_vraiment_flat_52.wav,0,True,2921,53,m,5,0.355215,56.473042
rcot,22,0,2024-02-26T16:56:05.593Z,male_vraiment_flat_52.wav,0,True,2921,53,m,6,0.426259,113.578937
rcot,22,0,2024-02-26T16:56:05.593Z,male_vraiment_flat_60.wav,1,False,2921,53,m,0,0.000000,-89.296237
rcot,22,0,2024-02-26T16:56:05.593Z,male_vraiment_flat_60.wav,1,False,2921,53,m,1,0.071043,0.647875
rcot,22,0,2024-02-26T16:56:05.593Z,male_vraiment_flat_60.wav,1,False,2921,53,m,2,0.142086,-124.228045
rcot,22,0,2024-02-26T16:56:05.593Z,male_vraiment_flat_60.wav,1,False,2921,53,m,3,0.213129,-147.365900
rcot,22,0,2024-02-26T16:56:05.593Z,male_vraiment_flat_60.wav,1,False,2921,53,m,4,0.284172,-7.428030
rcot,22,0,2024-02-26T16:56:05.593Z,male_vraiment_flat_60.wav,1,False,2921,53,m,5,0.355215,-42.828577
rcot,22,0,2024-02-26T16:56:05.593Z,male_vraiment_flat_60.wav,1,False,2921,53,m,6,0.426259,-114.882786
rcot,23,0,2024-02-26T16:56:05.593Z,male_vraiment_flat_101.wav,0,False,885,53,m,0,0.000000,69.316576
rcot,23,0,2024-02-26T16:56:05.593Z,male_vraiment_flat_101.wav,0,False,885,53,m,1,0.071043,-9.395360
rcot,23,0,2024-02-26T16:56:05.593Z,male_vraiment_flat_101.wav,0,False,885,53,m,2,0.142086,-16.210020
rcot,23,0,2024-02-26T16:56:05.593Z,male_vraiment_flat_101.wav,0,False,885,53,m,3,0.213129,5.282415
rcot,23,0,2024-02-26T16:56:05.593Z,male_vraiment_flat_101.wav,0,False,885,53,m,4,0.284172,-92.031474
rcot,23,0,2024-02-26T16:56:05.593Z,male_vraiment_flat_101.wav,0,False,885,53,m,5,0.355215,-71.382142
rcot,23,0,2024-02-26T16:56:05.593Z,male_vraiment_flat_101.wav,0,False,885,53,m,6,0.426259,-144.168558
rcot,23,0,2024-02-26T16:56:05.593Z,male_vraiment_flat_192.wav,1,True,885,53,m,0,0.000000,46.973159
rcot,23,0,2024-02-26T16:56:05.593Z,male_vraiment_flat_192.wav,1,True,885,53,m,1,0.071043,-61.711820
rcot,23,0,2024-02-26T16:56:05.593Z,male_vraiment_flat_192.wav,1,True,885,53,m,2,0.142086,14.836428
rcot,23,0,2024-02-26T16:56:05.593Z,male_vraiment_flat_192.wav,1,True,885,53,m,3,0.213129,30.862549
rcot,23,0,2024-02-26T16:56:05.593Z,male_vraiment_flat_192.wav,1,True,885,53,m,4,0.284172,28.459321
rcot,23,0,2024-02-26T16:56:05.593Z,male_vraiment_flat_192.wav,1,True,885,53,m,5,0.355215,2.114815
rcot,23,0,2024-02-26T16:56:05.593Z,male_vraiment_flat_192.wav,1,True,885,53,m,6,0.426259,86.651936
rcot,24,0,2024-02-26T16:56:05.593Z,male_vraiment_flat_176.wav,0,True,1019,53,m,0,0.000000,-0.886832
rcot,24,0,2024-02-26T16:56:05.593Z,male_vraiment_flat_176.wav,0,True,1019,53,m,1,0.071043,48.604994
rcot,24,0,2024-02-26T16:56:05.593Z,male_vraiment_flat_176.wav,0,True,1019,53,m,2,0.142086,33.352714
rcot,24,0,2024-02-26T16:56:05.593Z,male_vraiment_flat_176.wav,0,True,1019,53,m,3,0.213129,-55.356586
rcot,24,0,2024-02-26T16:56:05.593Z,male_vraiment_flat_176.wav,0,True,1019,53,m,4,0.284172,-13.903711
rcot,24,0,2024-02-26T16:56:05.593Z,male_vraiment_flat_176.wav,0,True,1019,53,m,5,0.355215,54.096530
rcot,24,0,2024-02-26T16:56:05.593Z,male_vraiment_flat_176.wav,0,True,1019,53,m,6,0.426259,-77.791606
rcot,24,0,2024-02-26T16:56:05.593Z,male_vraiment_flat_110.wav,1,False,1019,53,m,0,0.000000,-78.850505
rcot,24,0,2024-02-26T16:56:05.593Z,male_vraiment_flat_110.wav,1,False,1019,53,m,1,0.071043,-96.953533
rcot,24,0,2024-02-26T16:56:05.593Z,male_vraiment_flat_110.wav,1,False,1019,53,m,2,0.142086,-38.365791
rcot,24,0,2024-02-26T16:56:05.593Z,male_vraiment_flat_110.wav,1,False,1019,53,m,3,0.213129,77.506607
rcot,24,0,2024-02-26T16:56:05.593Z,male_vraiment_flat_110.wav,1,False,1019,53,m,4,0.284172,-64.506238
rcot,24,0,2024-02-26T16:56:05.593Z,male_vraiment_flat_110.wav,1,False,1019,53,m,5,0.355215,15.353748
rcot,24,0,2024-02-26T16:56:05.593Z,male_vraiment_flat_110.wav,1,False,1019,53,m,6,0.426259,121.287299
rcot,25,0,2024-02-26T16:56:05.593Z,male_vraiment_flat_71.wav,0,True,5816,53,m,0,0.000000,98.558580
rcot,25,0,2024-02-26T16:56:05.593Z,male_vraiment_flat_71.wav,0,True,5816,53,m,1,0.071043,119.886109
rcot,25,0,2024-02-26T16:56:05.593Z,male_vraiment_flat_71.wav,0,True,5816,53,m,2,0.142086,-7.976954
rcot,25,0,2024-02-26T16:56:05.593Z,male_vraiment_flat_71.wav,0,True,5816,53,m,3,0.213129,7.397873
rcot,25,0,2024-02-26T16:56:05.593Z,male_vraiment_flat_71.wav,0,True,5816,53,m,4,0.284172,8.946833
rcot,25,0,2024-02-26T16:56:05.593Z,male_vraiment_flat_71.wav,0,True,5816,53,m,5,0.355215,-77.850016
rcot,25,0,2024-02-26T16:56:05.593Z,male_vraiment_flat_71.wav,0,True,5816,53,m,6,0.426259,-8.433981
rcot,25,0,2024-02-26T16:56:05.593Z,male_vraiment_flat_132.wav,1,False,5816,53,m,0,0.000000,-95.735908
rcot,25,0,2024-02-26T16:56:05.593Z,male_vraiment_flat_132.wav,1,False,5816,53,m,1,0.071043,84.596174
rcot,25,0,2024-02-26T16:56:05.593Z,male_vraiment_flat_132.wav,1,False,5816,53,m,2,0.142086,30.815879
rcot,25,0,2024-02-26T16:56:05.593Z,male_vraiment_flat_132.wav,1,False,5816,53,m,3,0.213129,80.998062
rcot,25,0,2024-02-26T16:56:05.593Z,male_vraiment_flat_132.wav,1,False,5816,53,m,4,0.284172,4.635713
rcot,25,0,2024-02-26T16:56:05.593Z,male_vraiment_flat_132.wav,1,False,5816,53,m,5,0.355215,-66.322755
rcot,25,0,2024-02-26T16:56:05.593Z,male_vraiment_flat_132.wav,1,False,5816,53,m,6,0.426259,13.571979
rcot,26,0,2024-02-26T16:56:05.593Z,male_vraiment_flat_102.wav,0,True,858,53,m,0,0.000000,-40.599677
rcot,26,0,2024-02-26T16:56:05.593Z,male_vraiment_flat_102.wav,0,True,858,53,m,1,0.071043,73.648850
rcot,26,0,2024-02-26T16:56:05.593Z,male_vraiment_flat_102.wav,0,True,858,53,m,2,0.142086,15.923898
rcot,26,0,2024-02-26T16:56:05.593Z,male_vraiment_flat_102.wav,0,True,858,53,m,3,0.213129,-109.098836
rcot,26,0,2024-02-26T16:56:05.593Z,male_vraiment_flat_102.wav,0,True,858,53,m,4,0.284172,134.536605
rcot,26,0,2024-02-26T16:56:05.593Z,male_vraiment_flat_102.wav,0,True,858,53,m,5,0.355215,127.784516
rcot,26,0,2024-02-26T16:56:05.593Z,male_vraiment_flat_102.wav,0,True,858,53,m,6,0.426259,-136.569602
rcot,26,0,2024-02-26T16:56:05.593Z,male_vraiment_flat_156.wav,1,False,858,53,m,0,0.000000,62.995907
rcot,26,0,2024-02-26T16:56:05.593Z,male_vraiment_flat_156.wav,1,False,858,53,m,1,0.071043,-119.801161
rcot,26,0,2024-02-26T16:56:05.593Z,male_vraiment_flat_156.wav,1,False,858,53,m,2,0.142086,-125.261471
rcot,26,0,2024-02-26T16:56:05.593Z,male_vraiment_flat_156.wav,1,False,858,53,m,3,0.213129,110.918732
rcot,26,0,2024-02-26T16:56:05.593Z,male_vraiment_flat_156.wav,1,False,858,53,m,4,0.284172,-27.635219
rcot,26,0,2024-02-26T16:56:05.593Z,male_vraiment_flat_156.wav,1,False,858,53,m,5,0.355215,57.926930
rcot,26,0,2024-02-26T16:56:05.593Z,male_vraiment_flat_156.wav,1,False,858,53,m,6,0.426259,-85.703842
rcot,27,0,2024-02-26T16:56:05.593Z,male_vraiment_flat_20.wav,0,False,655,53,m,0,0.000000,-58.370476
rcot,27,0,2024-02-26T16:56:05.593Z,male_vraiment_flat_20.wav,0,False,655,53,m,1,0.071043,112.073529
rcot,27,0,2024-02-26T16:56:05.593Z,male_vraiment_flat_20.wav,0,False,655,53,m,2,0.142086,29.472628
rcot,27,0,2024-02-26T16:56:05.593Z,male_vraiment_flat_20.wav,0,False,655,53,m,3,0.213129,-22.374222
rcot,27,0,2024-02-26T16:56:05.593Z,male_vraiment_flat_20.wav,0,False,655,53,m,4,0.284172,-146.515998
rcot,27,0,2024-02-26T16:56:05.593Z,male_vraiment_flat_20.wav,0,False,655,53,m,5,0.355215,47.280720
rcot,27,0,2024-02-26T16:56:05.593Z,male_vraiment_flat_20.wav,0,False,655,53,m,6,0.426259,140.553925
rcot,27,0,2024-02-26T16:56:05.593Z,male_vraiment_flat_42.wav,1,True,655,53,m,0,0.000000,-6.709342
rcot,27,0,2024-02-26T16:56:05.593Z,male_vraiment_flat_42.wav,1,True,655,53,m,1,0.071043,35.704202
rcot,27,0,2024-02-26T16:56:05.593Z,male_vraiment_flat_42.wav,1,True,655,53,m,2,0.142086,-71.421689
rcot,27,0,2024-02-26T16:56:05.593Z,male_vraiment_flat_42.wav,1,True,655,53,m,3,0.213129,-126.906461
rcot,27,0,2024-02-26T16:56:05.593Z,male_vraiment_flat_42.wav,1,True,655,53,m,4,0.284172,10.231121
rcot,27,0,2024-02-26T16:56:05.593Z,male_vraiment_flat_42.wav,1,True,655,53,m,5,0.355215,128.933526
rcot,27,0,2024-02-26T16:56:05.593Z,male_vraiment_flat_42.wav,1,True,655,53,m,6,0.426259,-76.727395
rcot,28,0,2024-02-26T16:56:05.593Z,male_vraiment_flat_77.wav,0,False,581,53,m,0,0.000000,-123.489900
rcot,28,0,2024-02-26T16:56:05.593Z,male_vraiment_flat_77.wav,0,False,581,53,m,1,0.071043,8.804262
rcot,28,0,2024-02-26T16:56:05.593Z,male_vraiment_flat_77.wav,0,False,581,53,m,2,0.142086,-15.205517
rcot,28,0,2024-02-26T16:56:05.593Z,male_vraiment_flat_77.wav,0,False,581,53,m,3,0.213129,7.550940
rcot,28,0,2024-02-26T16:56:05.593Z,male_vraiment_flat_77.wav,0,False,581,53,m,4,0.284172,97.551926
rcot,28,0,2024-02-26T16:56:05.593Z,male_vraiment_flat_77.wav,0,False,581,53,m,5,0.355215,56.352460
rcot,28,0,2024-02-26T16:56:05.593Z,male_vraiment_flat_77.wav,0,False,581,53,m,6,0.426259,-146.779345
rcot,28,0,2024-02-26T16:56:05.593Z,male_vraiment_flat_43.wav,1,True,581,53,m,0,0.000000,49.290737
rcot,28,0,2024-02-26T16:56:05.593Z,male_vraiment_flat_43.wav,1,True,581,53,m,1,0.071043,5.814602
rcot,28,0,2024-02-26T16:56:05.593Z,male_vraiment_flat_43.wav,1,True,581,53,m,2,0.142086,-14.528706
rcot,28,0,2024-02-26T16:56:05.593Z,male_vraiment_flat_43.wav,1,True,581,53,m,3,0.213129,53.076799
rcot,28,0,2024-02-26T16:56:05.593Z,male_vraiment_flat_43.wav,1,True,581,53,m,4,0.284172,-30.290069
rcot,28,0,2024-02-26T16:56:05.593Z,male_vraiment_flat_43.wav,1,True,581,53,m,5,0.355215,134.741064
rcot,28,0,2024-02-26T16:56:05.593Z,male_vraiment_flat_43.wav,1,True,581,53,m,6,0.426259,54.746527
rcot,29,0,2024-02-26T16:56:05.593Z,male_vraiment_flat_10.wav,0,True,1844,53,m,0,0.000000,-59.283835
rcot,29,0,2024-02-26T16:56:05.593Z,male_vraiment_flat_10.wav,0,True,1844,53,m,1,0.071043,33.418752
rcot,29,0,2024-02-26T16:56:05.593Z,male_vraiment_flat_10.wav,0,True,1844,53,m,2,0.142086,-98.686452
rcot,29,0,2024-02-26T16:56:05.593Z,male_vraiment_flat_10.wav,0,True,1844,53,m,3,0.213129,137.870403
rcot,29,0,2024-02-26T16:56:05.593Z,male_vraiment_flat_10.wav,0,True,1844,53,m,4,0.284172,-113.384751
rcot,29,0,2024-02-26T16:56:05.593Z,male_vraiment_flat_10.wav,0,True,1844,53,m,5,0.355215,-122.497954
rcot,29,0,2024-02-26T16:56:05.593Z,male_vraiment_flat_10.wav,0,True,1844,53,m,6,0.426259,-121.154526
rcot,29,0,2024-02-26T16:56:05.593Z,male_vraiment_flat_44.wav,1,False,1844,53,m,0,0.000000,-41.207511
rcot,29,0,2024-02-26T16:56:05.593Z,male_vraiment_flat_44.wav,1,False,1844,53,m,1,0.071043,-36.343841
rcot,29,0,2024-02-26T16:56:05.593Z,male_vraiment_flat_44.wav,1,False,1844,53,m,2,0.142086,111.477084
rcot,29,0,2024-02-26T16:56:05.593Z,male_vraiment_flat_44.wav,1,False,1844,53,m,3,0.213129,5.942406
rcot,29,0,2024-02-26T16:56:05.593Z,male_vraiment_flat_44.wav,1,False,1844,53,m,4,0.284172,108.539673
rcot,29,0,2024-02-26T16:56:05.593Z,male_vraiment_flat_44.wav,1,False,1844,53,m,5,0.355215,-120.732661
rcot,29,0,2024-02-26T16:56:05.593Z,male_vraiment_flat_44.wav,1,False,1844,53,m,6,0.426259,-22.824839
rcot,30,0,2024-02-26T16:56:05.593Z,male_vraiment_flat_87.wav,0,True,560,53,m,0,0.000000,123.541183
rcot,30,0,2024-02-26T16:56:05.593Z,male_vraiment_flat_87.wav,0,True,560,53,m,1,0.071043,-79.641893
rcot,30,0,2024-02-26T16:56:05.593Z,male_vraiment_flat_87.wav,0,True,560,53,m,2,0.142086,-129.036775
rcot,30,0,2024-02-26T16:56:05.593Z,male_vraiment_flat_87.wav,0,True,560,53,m,3,0.213129,-12.372422
rcot,30,0,2024-02-26T16:56:05.593Z,male_vraiment_flat_87.wav,0,True,560,53,m,4,0.284172,47.099802
rcot,30,0,2024-02-26T16:56:05.593Z,male_vraiment_flat_87.wav,0,True,560,53,m,5,0.355215,133.796504
rcot,30,0,2024-02-26T16:56:05.593Z,male_vraiment_flat_87.wav,0,True,560,53,m,6,0.426259,125.051187
rcot,30,0,2024-02-26T16:56:05.593Z,male_vraiment_flat_86.wav,1,False,560,53,m,0,0.000000,85.260205
rcot,30,0,2024-02-26T16:56:05.593Z,male_vraiment_flat_86.wav,1,False,560,53,m,1,0.071043,-4.684566
rcot,30,0,2024-02-26T16:56:05.593Z,male_vraiment_flat_86.wav,1,False,560,53,m,2,0.142086,133.406345
rcot,30,0,2024-02-26T16:56:05.593Z,male_vraiment_flat_86.wav,1,False,560,53,m,3,0.213129,110.454503
rcot,30,0,2024-02-26T16:56:05.593Z,male_vraiment_flat_86.wav,1,False,560,53,m,4,0.284172,38.373367
rcot,30,0,2024-02-26T16:56:05.593Z,male_vraiment_flat_86.wav,1,False,560,53,m,5,0.355215,75.992097
rcot,30,0,2024-02-26T16:56:05.593Z,male_vraiment_flat_86.wav,1,False,560,53,m,6,0.426259,-87.651019
rcot,31,0,2024-02-26T16:56:05.593Z,male_vraiment_flat_48.wav,0,True,2712,53,m,0,0.000000,90.503303
rcot,31,0,2024-02-26T16:56:05.593Z,male_vraiment_flat_48.wav,0,True,2712,53,m,1,0.071043,6.970948
rcot,31,0,2024-02-26T16:56:05.593Z,male_vraiment_flat_48.wav,0,True,2712,53,m,2,0.142086,67.030496
rcot,31,0,2024-02-26T16:56:05.593Z,male_vraiment_flat_48.wav,0,True,2712,53,m,3,0.213129,131.765290
rcot,31,0,2024-02-26T16:56:05.593Z,male_vraiment_flat_48.wav,0,True,2712,53,m,4,0.284172,144.593501
rcot,31,0,2024-02-26T16:56:05.593Z,male_vraiment_flat_48.wav,0,True,2712,53,m,5,0.355215,16.017944
rcot,31,0,2024-02-26T16:56:05.593Z,male_vraiment_flat_48.wav,0,True,2712,53,m,6,0.426259,-146.021483
rcot,31,0,2024-02-26T16:56:05.593Z,male_vraiment_flat_24.wav,1,False,2712,53,m,0,0.000000,-144.276814
rcot,31,0,2024-02-26T16:56:05.593Z,male_vraiment_flat_24.wav,1,False,2712,53,m,1,0.071043,-59.436611
rcot,31,0,2024-02-26T16:56:05.593Z,male_vraiment_flat_24.wav,1,False,2712,53,m,2,0.142086,45.565590
rcot,31,0,2024-02-26T16:56:05.593Z,male_vraiment_flat_24.wav,1,False,2712,53,m,3,0.213129,19.626340
rcot,31,0,2024-02-26T16:56:05.593Z,male_vraiment_flat_24.wav,1,False,2712,53,m,4,0.284172,-127.586662
rcot,31,0,2024-02-26T16:56:05.593Z,male_vraiment_flat_24.wav,1,False,2712,53,m,5,0.355215,59.214853
rcot,31,0,2024-02-26T16:56:05.593Z,male_vraiment_flat_24.wav,1,False,2712,53,m,6,0.426259,-70.996219
rcot,32,0,2024-02-26T16:56:05.593Z,male_vraiment_flat_193.wav,0,True,823,53,m,0,0.000000,-104.498046
rcot,32,0,2024-02-26T16:56:05.593Z,male_vraiment_flat_193.wav,0,True,823,53,m,1,0.071043,27.454942
rcot,32,0,2024-02-26T16:56:05.593Z,male_vraiment_flat_193.wav,0,True,823,53,m,2,0.142086,-81.084240
rcot,32,0,2024-02-26T16:56:05.593Z,male_vraiment_flat_193.wav,0,True,823,53,m,3,0.213129,-66.105426
rcot,32,0,2024-02-26T16:56:05.593Z,male_vraiment_flat_193.wav,0,True,823,53,m,4,0.284172,-18.843418
rcot,32,0,2024-02-26T16:56:05.593Z,male_vraiment_flat_193.wav,0,True,823,53,m,5,0.355215,59.447118
rcot,32,0,2024-02-26T16:56:05.593Z,male_vraiment_flat_193.wav,0,True,823,53,m,6,0.426259,86.357299
rcot,32,0,2024-02-26T16:56:05.593Z,male_vraiment_flat_117.wav,1,False,823,53,m,0,0.000000,20.648074
rcot,32,0,2024-02-26T16:56:05.593Z,male_vraiment_flat_117.wav,1,False,823,53,m,1,0.071043,145.233438
rcot,32,0,2024-02-26T16:56:05.593Z,male_vraiment_flat_117.wav,1,False,823,53,m,2,0.142086,42.346521
rcot,32,0,2024-02-26T16:56:05.593Z,male_vraiment_flat_117.wav,1,False,823,53,m,3,0.213129,-116.594338
rcot,32,0,2024-02-26T16:56:05.593Z,male_vraiment_flat_117.wav,1,False,823,53,m,4,0.284172,94.892274
rcot,32,0,2024-02-26T16:56:05.593Z,male_vraiment_flat_117.wav,1,False,823,53,m,5,0.355215,-123.170662
rcot,32,0,2024-02-26T16:56:05.593Z,male_vraiment_flat_117.wav,1,False,823,53,m,6,0.426259,83.715702
rcot,33,0,2024-02-26T16:56:05.593Z,male_vraiment_flat_67.wav,0,True,2001,53,m,0,0.000000,3.293259
rcot,33,0,2024-02-26T16:56:05.593Z,male_vraiment_flat_67.wav,0,True,2001,53,m,1,0.071043,-46.547477
rcot,33,0,2024-02-26T16:56:05.593Z,male_vraiment_flat_67.wav,0,True,2001,53,m,2,0.142086,54.624069
rcot,33,0,2024-02-26T16:56:05.593Z,male_vraiment_flat_67.wav,0,True,2001,53,m,3,0.213129,-46.025939
rcot,33,0,2024-02-26T16:56:05.593Z,male_vraiment_flat_67.wav,0,True,2001,53,m,4,0.284172,70.704507
rcot,33,0,2024-02-26T16:56:05.593Z,male_vraiment_flat_67.wav,0,True,2001,53,m,5,0.355215,-47.199237
rcot,33,0,2024-02-26T16:56:05.593Z,male_vraiment_flat_67.wav,0,True,2001,53,m,6,0.426259,147.575842
rcot,33,0,2024-02-26T16:56:05.593Z,male_vraiment_flat_11.wav,1,False,2001,53,m,0,0.000000,106.632802
rcot,33,0,2024-02-26T16:56:05.593Z,male_vraiment_flat_11.wav,1,False,2001,53,m,1,0.071043,30.235531
rcot,33,0,2024-02-26T16:56:05.593Z,male_vraiment_flat_11.wav,1,False,2001,53,m,2,0.142086,-31.934811
rcot,33,0,2024-02-26T16:56:05.593Z,male_vraiment_flat_11.wav,1,False,2001,53,m,3,0.213129,-70.817469
rcot,33,0,2024-02-26T16:56:05.593Z,male_vraiment_flat_11.wav,1,False,2001,53,m,4,0.284172,-134.947845
rcot,33,0,2024-02-26T16:56:05.593Z,male_vraiment_flat_11.wav,1,False,2001,53,m,5,0.355215,-61.866249
rcot,33,0,2024-02-26T16:56:05.593Z,male_vraiment_flat_11.wav,1,False,2001,53,m,6,0.426259,61.370028
rcot,34,0,2024-02-26T16:56:05.593Z,male_vraiment_flat_50.wav,0,True,3688,53,m,0,0.000000,96.336182
rcot,34,0,2024-02-26T16:56:05.593Z,male_vraiment_flat_50.wav,0,True,3688,53,m,1,0.071043,-104.561128
rcot,34,0,2024-02-26T16:56:05.593Z,male_vraiment_flat_50.wav,0,True,3688,53,m,2,0.142086,-130.066913
rcot,34,0,2024-02-26T16:56:05.593Z,male_vraiment_flat_50.wav,0,True,3688,53,m,3,0.213129,-24.308766
rcot,34,0,2024-02-26T16:56:05.593Z,male_vraiment_flat_50.wav,0,True,3688,53,m,4,0.284172,40.127472
rcot,34,0,2024-02-26T16:56:05.593Z,male_vraiment_flat_50.wav,0,True,3688,53,m,5,0.355215,49.388454
rcot,34,0,2024-02-26T16:56:05.593Z,male_vraiment_flat_50.wav,0,True,3688,53,m,6,0.426259,116.704022
rcot,34,0,2024-02-26T16:56:05.593Z,male_vraiment_flat_169.wav,1,False,3688,53,m,0,0.000000,117.441793
rcot,34,0,2024-02-26T16:56:05.593Z,male_vraiment_flat_169.wav,1,False,3688,53,m,1,0.071043,-117.459261
rcot,34,0,2024-02-26T16:56:05.593Z,male_vraiment_flat_169.wav,1,False,3688,53,m,2,0.142086,-45.020491
rcot,34,0,2024-02-26T16:56:05.593Z,male_vraiment_flat_169.wav,1,False,3688,53,m,3,0.213129,-67.699150
rcot,34,0,2024-02-26T16:56:05.593Z,male_vraiment_flat_169.wav,1,False,3688,53,m,4,0.284172,-122.755451
rcot,34,0,2024-02-26T16:56:05.593Z,male_vraiment_flat_169.wav,1,False,3688,53,m,5,0.355215,-10.702133
rcot,34,0,2024-02-26T16:56:05.593Z,male_vraiment_flat_169.wav,1,False,3688,53,m,6,0.426259,66.943327
rcot,35,0,2024-02-26T16:56:05.593Z,male_vraiment_flat_182.wav,0,True,1208,53,m,0,0.000000,20.855134
rcot,35,0,2024-02-26T16:56:05.593Z,male_vraiment_flat_182.wav,0,True,1208,53,m,1,0.071043,131.000404
rcot,35,0,2024-02-26T16:56:05.593Z,male_vraiment_flat_182.wav,0,True,1208,53,m,2,0.142086,-24.691908
rcot,35,0,2024-02-26T16:56:05.593Z,male_vraiment_flat_182.wav,0,True,1208,53,m,3,0.213129,128.422786
rcot,35,0,2024-02-26T16:56:05.593Z,male_vraiment_flat_182.wav,0,True,1208,53,m,4,0.284172,-128.848387
rcot,35,0,2024-02-26T16:56:05.593Z,male_vraiment_flat_182.wav,0,True,1208,53,m,5,0.355215,118.792618
rcot,35,0,2024-02-26T16:56:05.593Z,male_vraiment_flat_182.wav,0,True,1208,53,m,6,0.426259,-92.475253
rcot,35,0,2024-02-26T16:56:05.593Z,male_vraiment_flat_104.wav,1,False,1208,53,m,0,0.000000,-70.174686
rcot,35,0,2024-02-26T16:56:05.593Z,male_vraiment_flat_104.wav,1,False,1208,53,m,1,0.071043,-64.753986
rcot,35,0,2024-02-26T16:56:05.593Z,male_vraiment_flat_104.wav,1,False,1208,53,m,2,0.142086,-116.293490
rcot,35,0,2024-02-26T16:56:05.593Z,male_vraiment_flat_104.wav,1,False,1208,53,m,3,0.213129,-63.059369
rcot,35,0,2024-02-26T16:56:05.593Z,male_vraiment_flat_104.wav,1,False,1208,53,m,4,0.284172,102.899256
rcot,35,0,2024-02-26T16:56:05.593Z,male_vraiment_flat_104.wav,1,False,1208,53,m,5,0.355215,-142.936640
rcot,35,0,2024-02-26T16:56:05.593Z,male_vraiment_flat_104.wav,1,False,1208,53,m,6,0.426259,-16.173865
rcot,36,0,2024-02-26T16:56:05.593Z,male_vraiment_flat_119.wav,0,True,650,53,m,0,0.000000,-44.932226
rcot,36,0,2024-02-26T16:56:05.593Z,male_vraiment_flat_119.wav,0,True,650,53,m,1,0.071043,12.460519
rcot,36,0,2024-02-26T16:56:05.593Z,male_vraiment_flat_119.wav,0,True,650,53,m,2,0.142086,58.855712
rcot,36,0,2024-02-26T16:56:05.593Z,male_vraiment_flat_119.wav,0,True,650,53,m,3,0.213129,26.967779
rcot,36,0,2024-02-26T16:56:05.593Z,male_vraiment_flat_119.wav,0,True,650,53,m,4,0.284172,139.969902
rcot,36,0,2024-02-26T16:56:05.593Z,male_vraiment_flat_119.wav,0,True,650,53,m,5,0.355215,49.325586
rcot,36,0,2024-02-26T16:56:05.593Z,male_vraiment_flat_119.wav,0,True,650,53,m,6,0.426259,89.552624
rcot,36,0,2024-02-26T16:56:05.593Z,male_vraiment_flat_142.wav,1,False,650,53,m,0,0.000000,129.881009
rcot,36,0,2024-02-26T16:56:05.593Z,male_vraiment_flat_142.wav,1,False,650,53,m,1,0.071043,116.596688
rcot,36,0,2024-02-26T16:56:05.593Z,male_vraiment_flat_142.wav,1,False,650,53,m,2,0.142086,48.203333
rcot,36,0,2024-02-26T16:56:05.593Z,male_vraiment_flat_142.wav,1,False,650,53,m,3,0.213129,100.883154
rcot,36,0,2024-02-26T16:56:05.593Z,male_vraiment_flat_142.wav,1,False,650,53,m,4,0.284172,-39.625904
rcot,36,0,2024-02-26T16:56:05.593Z,male_vraiment_flat_142.wav,1,False,650,53,m,5,0.355215,-141.802649
rcot,36,0,2024-02-26T16:56:05.593Z,male_vraiment_flat_142.wav,1,False,650,53,m,6,0.426259,58.691582
rcot,37,0,2024-02-26T16:56:05.593Z,male_vraiment_flat_34.wav,0,False,541,53,m,0,0.000000,55.759121
rcot,37,0,2024-02-26T16:56:05.593Z,male_vraiment_flat_34.wav,0,False,541,53,m,1,0.071043,56.428420
rcot,37,0,2024-02-26T16:56:05.593Z,male_vraiment_flat_34.wav,0,False,541,53,m,2,0.142086,-58.759553
rcot,37,0,2024-02-26T16:56:05.593Z,male_vraiment_flat_34.wav,0,False,541,53,m,3,0.213129,-145.130290
rcot,37,0,2024-02-26T16:56:05.593Z,male_vraiment_flat_34.wav,0,False,541,53,m,4,0.284172,109.056087
rcot,37,0,2024-02-26T16:56:05.593Z,male_vraiment_flat_34.wav,0,False,541,53,m,5,0.355215,-133.281135
rcot,37,0,2024-02-26T16:56:05.593Z,male_vraiment_flat_34.wav,0,False,541,53,m,6,0.426259,-126.261912
rcot,37,0,2024-02-26T16:56:05.593Z,male_vraiment_flat_55.wav,1,True,541,53,m,0,0.000000,41.960803
rcot,37,0,2024-02-26T16:56:05.593Z,male_vraiment_flat_55.wav,1,True,541,53,m,1,0.071043,-15.216637
rcot,37,0,2024-02-26T16:56:05.593Z,male_vraiment_flat_55.wav,1,True,541,53,m,2,0.142086,-141.495937
rcot,37,0,2024-02-26T16:56:05.593Z,male_vraiment_flat_55.wav,1,True,541,53,m,3,0.213129,-73.120481
rcot,37,0,2024-02-26T16:56:05.593Z,male_vraiment_flat_55.wav,1,True,541,53,m,4,0.284172,-46.277227
rcot,37,0,2024-02-26T16:56:05.593Z,male_vraiment_flat_55.wav,1,True,541,53,m,5,0.355215,60.235867
rcot,37,0,2024-02-26T16:56:05.593Z,male_vraiment_flat_55.wav,1,True,541,53,m,6,0.426259,0.915299
rcot,38,0,2024-02-26T16:56:05.593Z,male_vraiment_flat_137.wav,0,True,1847,53,m,0,0.000000,80.130674
rcot,38,0,2024-02-26T16:56:05.593Z,male_vraiment_flat_137.wav,0,True,1847,53,m,1,0.071043,138.574149
rcot,38,0,2024-02-26T16:56:05.593Z,male_vraiment_flat_137.wav,0,True,1847,53,m,2,0.142086,75.493630
rcot,38,0,2024-02-26T16:56:05.593Z,male_vraiment_flat_137.wav,0,True,1847,53,m,3,0.213129,-91.745449
rcot,38,0,2024-02-26T16:56:05.593Z,male_vraiment_flat_137.wav,0,True,1847,53,m,4,0.284172,67.674634
rcot,38,0,2024-02-26T16:56:05.593Z,male_vraiment_flat_137.wav,0,True,1847,53,m,5,0.355215,136.412365
rcot,38,0,2024-02-26T16:56:05.593Z,male_vraiment_flat_137.wav,0,True,1847,53,m,6,0.426259,13.296001
rcot,38,0,2024-02-26T16:56:05.593Z,male_vraiment_flat_191.wav,1,False,1847,53,m,0,0.000000,-3.321474
rcot,38,0,2024-02-26T16:56:05.593Z,male_vraiment_flat_191.wav,1,False,1847,53,m,1,0.071043,110.638678
rcot,38,0,2024-02-26T16:56:05.593Z,male_vraiment_flat_191.wav,1,False,1847,53,m,2,0.142086,142.170563
rcot,38,0,2024-02-26T16:56:05.593Z,male_vraiment_flat_191.wav,1,False,1847,53,m,3,0.213129,-110.761685
rcot,38,0,2024-02-26T16:56:05.593Z,male_vraiment_flat_191.wav,1,False,1847,53,m,4,0.284172,23.931067
rcot,38,0,2024-02-26T16:56:05.593Z,male_vraiment_flat_191.wav,1,False,1847,53,m,5,0.355215,-28.623113
rcot,38,0,2024-02-26T16:56:05.593Z,male_vraiment_flat_191.wav,1,False,1847,53,m,6,0.426259,68.073722
rcot,39,0,2024-02-26T16:56:05.593Z,male_vraiment_flat_54.wav,0,True,820,53,m,0,0.000000,117.470857
rcot,39,0,2024-02-26T16:56:05.593Z,male_vraiment_flat_54.wav,0,True,820,53,m,1,0.071043,-78.886002
rcot,39,0,2024-02-26T16:56:05.593Z,male_vraiment_flat_54.wav,0,True,820,53,m,2,0.142086,14.587652
rcot,39,0,2024-02-26T16:56:05.593Z,male_vraiment_flat_54.wav,0,True,820,53,m,3,0.213129,69.368451
rcot,39,0,2024-02-26T16:56:05.593Z,male_vraiment_flat_54.wav,0,True,820,53,m,4,0.284172,64.657305
rcot,39,0,2024-02-26T16:56:05.593Z,male_vraiment_flat_54.wav,0,True,820,53,m,5,0.355215,7.845227
rcot,39,0,2024-02-26T16:56:05.593Z,male_vraiment_flat_54.wav,0,True,820,53,m,6,0.426259,-11.003085
rcot,39,0,2024-02-26T16:56:05.593Z,male_vraiment_flat_124.wav,1,False,820,53,m,0,0.000000,-7.963711
rcot,39,0,2024-02-26T16:56:05.593Z,male_vraiment_flat_124.wav,1,False,820,53,m,1,0.071043,-56.081883
rcot,39,0,2024-02-26T16:56:05.593Z,male_vraiment_flat_124.wav,1,False,820,53,m,2,0.142086,-78.115299
rcot,39,0,2024-02-26T16:56:05.593Z,male_vraiment_flat_124.wav,1,False,820,53,m,3,0.213129,-24.811935
rcot,39,0,2024-02-26T16:56:05.593Z,male_vraiment_flat_124.wav,1,False,820,53,m,4,0.284172,-9.003272
rcot,39,0,2024-02-26T16:56:05.593Z,male_vraiment_flat_124.wav,1,False,820,53,m,5,0.355215,13.712214
rcot,39,0,2024-02-26T16:56:05.593Z,male_vraiment_flat_124.wav,1,False,820,53,m,6,0.426259,140.048390
rcot,40,0,2024-02-26T16:56:05.593Z,male_vraiment_flat_131.wav,0,False,3641,53,m,0,0.000000,107.175705
rcot,40,0,2024-02-26T16:56:05.593Z,male_vraiment_flat_131.wav,0,False,3641,53,m,1,0.071043,81.997533
rcot,40,0,2024-02-26T16:56:05.593Z,male_vraiment_flat_131.wav,0,False,3641,53,m,2,0.142086,53.236564
rcot,40,0,2024-02-26T16:56:05.593Z,male_vraiment_flat_131.wav,0,False,3641,53,m,3,0.213129,108.962563
rcot,40,0,2024-02-26T16:56:05.593Z,male_vraiment_flat_131.wav,0,False,3641,53,m,4,0.284172,-22.910156
rcot,40,0,2024-02-26T16:56:05.593Z,male_vraiment_flat_131.wav,0,False,3641,53,m,5,0.355215,133.743101
rcot,40,0,2024-02-26T16:56:05.593Z,male_vraiment_flat_131.wav,0,False,3641,53,m,6,0.426259,98.652547
rcot,40,0,2024-02-26T16:56:05.593Z,male_vraiment_flat_9.wav,1,True,3641,53,m,0,0.000000,85.332288
rcot,40,0,2024-02-26T16:56:05.593Z,male_vraiment_flat_9.wav,1,True,3641,53,m,1,0.071043,-113.949520
rcot,40,0,2024-02-26T16:56:05.593Z,male_vraiment_flat_9.wav,1,True,3641,53,m,2,0.142086,22.848070
rcot,40,0,2024-02-26T16:56:05.593Z,male_vraiment_flat_9.wav,1,True,3641,53,m,3,0.213129,-135.528843
rcot,40,0,2024-02-26T16:56:05.593Z,male_vraiment_flat_9.wav,1,True,3641,53,m,4,0.284172,76.460330
rcot,40,0,2024-02-26T16:56:05.593Z,male_vraiment_flat_9.wav,1,True,3641,53,m,5,0.355215,72.455461
rcot,40,0,2024-02-26T16:56:05.593Z,male_vraiment_flat_9.wav,1,True,3641,53,m,6,0.426259,-135.542556
rcot,41,0,2024-02-26T16:56:05.593Z,male_vraiment_flat_17.wav,0,False,2325,53,m,0,0.000000,91.198655
rcot,41,0,2024-02-26T16:56:05.593Z,male_vraiment_flat_17.wav,0,False,2325,53,m,1,0.071043,44.952547
rcot,41,0,2024-02-26T16:56:05.593Z,male_vraiment_flat_17.wav,0,False,2325,53,m,2,0.142086,-82.852461
rcot,41,0,2024-02-26T16:56:05.593Z,male_vraiment_flat_17.wav,0,False,2325,53,m,3,0.213129,-89.451177
rcot,41,0,2024-02-26T16:56:05.593Z,male_vraiment_flat_17.wav,0,False,2325,53,m,4,0.284172,-149.534475
rcot,41,0,2024-02-26T16:56:05.593Z,male_vraiment_flat_17.wav,0,False,2325,53,m,5,0.355215,-107.621144
rcot,41,0,2024-02-26T16:56:05.593Z,male_vraiment_flat_17.wav,0,False,2325,53,m,6,0.426259,-93.535165
rcot,41,0,2024-02-26T16:56:05.593Z,male_vraiment_flat_146.wav,1,True,2325,53,m,0,0.000000,92.610651
rcot,41,0,2024-02-26T16:56:05.593Z,male_vraiment_flat_146.wav,1,True,2325,53,m,1,0.071043,40.250954
rcot,41,0,2024-02-26T16:56:05.593Z,male_vraiment_flat_146.wav,1,True,2325,53,m,2,0.142086,99.988333
rcot,41,0,2024-02-26T16:56:05.593Z,male_vraiment_flat_146.wav,1,True,2325,53,m,3,0.213129,115.543405
rcot,41,0,2024-02-26T16:56:05.593Z,male_vraiment_flat_146.wav,1,True,2325,53,m,4,0.284172,-3.607960
rcot,41,0,2024-02-26T16:56:05.593Z,male_vraiment_flat_146.wav,1,True,2325,53,m,5,0.355215,-91.494225
rcot,41,0,2024-02-26T16:56:05.593Z,male_vraiment_flat_146.wav,1,True,2325,53,m,6,0.426259,-109.708123
rcot,42,0,2024-02-26T16:56:05.593Z,male_vraiment_flat_181.wav,0,True,4672,53,m,0,0.000000,87.984579
rcot,42,0,2024-02-26T16:56:05.593Z,male_vraiment_flat_181.wav,0,True,4672,53,m,1,0.071043,-52.749156
rcot,42,0,2024-02-26T16:56:05.593Z,male_vraiment_flat_181.wav,0,True,4672,53,m,2,0.142086,-81.744540
rcot,42,0,2024-02-26T16:56:05.593Z,male_vraiment_flat_181.wav,0,True,4672,53,m,3,0.213129,-103.539742
rcot,42,0,2024-02-26T16:56:05.593Z,male_vraiment_flat_181.wav,0,True,4672,53,m,4,0.284172,51.143910
rcot,42,0,2024-02-26T16:56:05.593Z,male_vraiment_flat_181.wav,0,True,4672,53,m,5,0.355215,89.293467
rcot,42,0,2024-02-26T16:56:05.593Z,male_vraiment_flat_181.wav,0,True,4672,53,m,6,0.426259,-33.289981
rcot,42,0,2024-02-26T16:56:05.593Z,male_vraiment_flat_32.wav,1,False,4672,53,m,0,0.000000,-83.957947
rcot,42,0,2024-02-26T16:56:05.593Z,male_vraiment_flat_32.wav,1,False,4672,53,m,1,0.071043,68.475222
rcot,42,0,2024-02-26T16:56:05.593Z,male_vraiment_flat_32.wav,1,False,4672,53,m,2,0.142086,-59.489465
rcot,42,0,2024-02-26T16:56:05.593Z,male_vraiment_flat_32.wav,1,False,4672,53,m,3,0.213129,64.566697
rcot,42,0,2024-02-26T16:56:05.593Z,male_vraiment_flat_32.wav,1,False,4672,53,m,4,0.284172,-27.267557
rcot,42,0,2024-02-26T16:56:05.593Z,male_vraiment_flat_32.wav,1,False,4672,53,m,5,0.355215,94.356275
rcot,42,0,2024-02-26T16:56:05.593Z,male_vraiment_flat_32.wav,1,False,4672,53,m,6,0.426259,27.666308
rcot,43,0,2024-02-26T16:56:05.593Z,male_vraiment_flat_189.wav,0,False,2781,53,m,0,0.000000,53.448621
rcot,43,0,2024-02-26T16:56:05.593Z,male_vraiment_flat_189.wav,0,False,2781,53,m,1,0.071043,82.292801
rcot,43,0,2024-02-26T16:56:05.593Z,male_vraiment_flat_189.wav,0,False,2781,53,m,2,0.142086,-89.509706
rcot,43,0,2024-02-26T16:56:05.593Z,male_vraiment_flat_189.wav,0,False,2781,53,m,3,0.213129,61.203077
rcot,43,0,2024-02-26T16:56:05.593Z,male_vraiment_flat_189.wav,0,False,2781,53,m,4,0.284172,-64.080431
rcot,43,0,2024-02-26T16:56:05.593Z,male_vraiment_flat_189.wav,0,False,2781,53,m,5,0.355215,71.408242
rcot,43,0,2024-02-26T16:56:05.593Z,male_vraiment_flat_189.wav,0,False,2781,53,m,6,0.426259,-96.299976
rcot,43,0,2024-02-26T16:56:05.593Z,male_vraiment_flat_28.wav,1,True,2781,53,m,0,0.000000,82.321174
rcot,43,0,2024-02-26T16:56:05.593Z,male_vraiment_flat_28.wav,1,True,2781,53,m,1,0.071043,-139.171806
rcot,43,0,2024-02-26T16:56:05.593Z,male_vraiment_flat_28.wav,1,True,2781,53,m,2,0.142086,-25.451767
rcot,43,0,2024-02-26T16:56:05.593Z,male_vraiment_flat_28.wav,1,True,2781,53,m,3,0.213129,-113.179723
rcot,43,0,2024-02-26T16:56:05.593Z,male_vraiment_flat_28.wav,1,True,2781,53,m,4,0.284172,-97.955774
rcot,43,0,2024-02-26T16:56:05.593Z,male_vraiment_flat_28.wav,1,True,2781,53,m,5,0.355215,43.444463
rcot,43,0,2024-02-26T16:56:05.593Z,male_vraiment_flat_28.wav,1,True,2781,53,m,6,0.426259,-9.291608
rcot,44,0,2024-02-26T16:56:05.593Z,male_vraiment_flat_26.wav,0,False,4473,53,m,0,0.000000,-135.344658
rcot,44,0,2024-02-26T16:56:05.593Z,male_vraiment_flat_26.wav,0,False,4473,53,m,1,0.071043,-76.172858
rcot,44,0,2024-02-26T16:56:05.593Z,male_vraiment_flat_26.wav,0,False,4473,53,m,2,0.142086,-130.999312
rcot,44,0,2024-02-26T16:56:05.593Z,male_vraiment_flat_26.wav,0,False,4473,53,m,3,0.213129,-146.306144
rcot,44,0,2024-02-26T16:56:05.593Z,male_vraiment_flat_26.wav,0,False,4473,53,m,4,0.284172,-78.266251
rcot,44,0,2024-02-26T16:56:05.593Z,male_vraiment_flat_26.wav,0,False,4473,53,m,5,0.355215,30.254136
rcot,44,0,2024-02-26T16:56:05.593Z,male_vraiment_flat_26.wav,0,False,4473,53,m,6,0.426259,-114.179281
rcot,44,0,2024-02-26T16:56:05.593Z,male_vraiment_flat_15.wav,1,True,4473,53,m,0,0.000000,-99.515509
rcot,44,0,2024-02-26T16:56:05.593Z,male_vraiment_flat_15.wav,1,True,4473,53,m,1,0.071043,-34.266668
rcot,44,0,2024-02-26T16:56:05.593Z,male_vraiment_flat_15.wav,1,True,4473,53,m,2,0.142086,14.847828
rcot,44,0,2024-02-26T16:56:05.593Z,male_vraiment_flat_15.wav,1,True,4473,53,m,3,0.213129,69.933849
rcot,44,0,2024-02-26T16:56:05.593Z,male_vraiment_flat_15.wav,1,True,4473,53,m,4,0.284172,112.308778
rcot,44,0,2024-02-26T16:56:05.593Z,male_vraiment_flat_15.wav,1,True,4473,53,m,5,0.355215,84.391608
rcot,44,0,2024-02-26T16:56:05.593Z,male_vraiment_flat_15.wav,1,True,4473,53,m,6,0.426259,-74.687150
rcot,45,0,2024-02-26T16:56:05.593Z,male_vraiment_flat_49.wav,0,True,3989,53,m,0,0.000000,-83.600042
rcot,45,0,2024-02-26T16:56:05.593Z,male_vraiment_flat_49.wav,0,True,3989,53,m,1,0.071043,-14.728623
rcot,45,0,2024-02-26T16:56:05.593Z,male_vraiment_flat_49.wav,0,True,3989,53,m,2,0.142086,25.142138
rcot,45,0,2024-02-26T16:56:05.593Z,male_vraiment_flat_49.wav,0,True,3989,53,m,3,0.213129,135.875151
rcot,45,0,2024-02-26T16:56:05.593Z,male_vraiment_flat_49.wav,0,True,3989,53,m,4,0.284172,60.117986
rcot,45,0,2024-02-26T16:56:05.593Z,male_vraiment_flat_49.wav,0,True,3989,53,m,5,0.355215,-135.086661
rcot,45,0,2024-02-26T16:56:05.593Z,male_vraiment_flat_49.wav,0,True,3989,53,m,6,0.426259,-32.809615
rcot,45,0,2024-02-26T16:56:05.593Z,male_vraiment_flat_64.wav,1,False,3989,53,m,0,0.000000,113.461811
rcot,45,0,2024-02-26T16:56:05.593Z,male_vraiment_flat_64.wav,1,False,3989,53,m,1,0.071043,60.375974
rcot,45,0,2024-02-26T16:56:05.593Z,male_vraiment_flat_64.wav,1,False,3989,53,m,2,0.142086,-103.339599
rcot,45,0,2024-02-26T16:56:05.593Z,male_vraiment_flat_64.wav,1,False,3989,53,m,3,0.213129,103.179307
rcot,45,0,2024-02-26T16:56:05.593Z,male_vraiment_flat_64.wav,1,False,3989,53,m,4,0.284172,81.101135
rcot,45,0,2024-02-26T16:56:05.593Z,male_vraiment_flat_64.wav,1,False,3989,53,m,5,0.355215,-3.861127
rcot,45,0,2024-02-26T16:56:05.593Z,male_vraiment_flat_64.wav,1,False,3989,53,m,6,0.426259,-77.158959
rcot,46,0,2024-02-26T16:56:05.593Z,male_vraiment_flat_65.wav,0,True,2616,53,m,0,0.000000,104.278510
rcot,46,0,2024-02-26T16:56:05.593Z,male_vraiment_flat_65.wav,0,True,2616,53,m,1,0.071043,120.742750
rcot,46,0,2024-02-26T16:56:05.593Z,male_vraiment_flat_65.wav,0,True,2616,53,m,2,0.142086,116.963717
rcot,46,0,2024-02-26T16:56:05.593Z,male_vraiment_flat_65.wav,0,True,2616,53,m,3,0.213129,-30.167489
rcot,46,0,2024-02-26T16:56:05.593Z,male_vraiment_flat_65.wav,0,True,2616,53,m,4,0.284172,58.482575
rcot,46,0,2024-02-26T16:56:05.593Z,male_vraiment_flat_65.wav,0,True,2616,53,m,5,0.355215,-35.240720
rcot,46,0,2024-02-26T16:56:05.593Z,male_vraiment_flat_65.wav,0,True,2616,53,m,6,0.426259,-49.851341
rcot,46,0,2024-02-26T16:56:05.593Z,male_vraiment_flat_141.wav,1,False,2616,53,m,0,0.000000,137.275446
rcot,46,0,2024-02-26T16:56:05.593Z,male_vraiment_flat_141.wav,1,False,2616,53,m,1,0.071043,43.805847
rcot,46,0,2024-02-26T16:56:05.593Z,male_vraiment_flat_141.wav,1,False,2616,53,m,2,0.142086,-129.344909
rcot,46,0,2024-02-26T16:56:05.593Z,male_vraiment_flat_141.wav,1,False,2616,53,m,3,0.213129,-123.799171
rcot,46,0,2024-02-26T16:56:05.593Z,male_vraiment_flat_141.wav,1,False,2616,53,m,4,0.284172,-103.584410
rcot,46,0,2024-02-26T16:56:05.593Z,male_vraiment_flat_141.wav,1,False,2616,53,m,5,0.355215,8.047141
rcot,46,0,2024-02-26T16:56:05.593Z,male_vraiment_flat_141.wav,1,False,2616,53,m,6,0.426259,-108.188423
rcot,47,0,2024-02-26T16:56:05.593Z,male_vraiment_flat_57.wav,0,False,486,53,m,0,0.000000,-38.971396
rcot,47,0,2024-02-26T16:56:05.593Z,male_vraiment_flat_57.wav,0,False,486,53,m,1,0.071043,127.210639
rcot,47,0,2024-02-26T16:56:05.593Z,male_vraiment_flat_57.wav,0,False,486,53,m,2,0.142086,-100.465383
rcot,47,0,2024-02-26T16:56:05.593Z,male_vraiment_flat_57.wav,0,False,486,53,m,3,0.213129,-139.526819
rcot,47,0,2024-02-26T16:56:05.593Z,male_vraiment_flat_57.wav,0,False,486,53,m,4,0.284172,-149.467980
rcot,47,0,2024-02-26T16:56:05.593Z,male_vraiment_flat_57.wav,0,False,486,53,m,5,0.355215,-50.432071
rcot,47,0,2024-02-26T16:56:05.593Z,male_vraiment_flat_57.wav,0,False,486,53,m,6,0.426259,15.305878
rcot,47,0,2024-02-26T16:56:05.593Z,male_vraiment_flat_46.wav,1,True,486,53,m,0,0.000000,48.231571
rcot,47,0,2024-02-26T16:56:05.593Z,male_vraiment_flat_46.wav,1,True,486,53,m,1,0.071043,-13.386862
rcot,47,0,2024-02-26T16:56:05.593Z,male_vraiment_flat_46.wav,1,True,486,53,m,2,0.142086,107.175029
rcot,47,0,2024-02-26T16:56:05.593Z,male_vraiment_flat_46.wav,1,True,486,53,m,3,0.213129,24.056117
rcot,47,0,2024-02-26T16:56:05.593Z,male_vraiment_flat_46.wav,1,True,486,53,m,4,0.284172,72.951541
rcot,47,0,2024-02-26T16:56:05.593Z,male_vraiment_flat_46.wav,1,True,486,53,m,5,0.355215,123.539508
rcot,47,0,2024-02-26T16:56:05.593Z,male_vraiment_flat_46.wav,1,True,486,53,m,6,0.426259,50.410407
rcot,48,0,2024-02-26T16:56:05.593Z,male_vraiment_flat_177.wav,0,True,2276,53,m,0,0.000000,16.306046
rcot,48,0,2024-02-26T16:56:05.593Z,male_vraiment_flat_177.wav,0,True,2276,53,m,1,0.071043,49.193464
rcot,48,0,2024-02-26T16:56:05.593Z,male_vraiment_flat_177.wav,0,True,2276,53,m,2,0.142086,-57.450827
rcot,48,0,2024-02-26T16:56:05.593Z,male_vraiment_flat_177.wav,0,True,2276,53,m,3,0.213129,-71.200742
rcot,48,0,2024-02-26T16:56:05.593Z,male_vraiment_flat_177.wav,0,True,2276,53,m,4,0.284172,75.759547
rcot,48,0,2024-02-26T16:56:05.593Z,male_vraiment_flat_177.wav,0,True,2276,53,m,5,0.355215,-147.097868
rcot,48,0,2024-02-26T16:56:05.593Z,male_vraiment_flat_177.wav,0,True,2276,53,m,6,0.426259,-23.614561
rcot,48,0,2024-02-26T16:56:05.593Z,male_vraiment_flat_3.wav,1,False,2276,53,m,0,0.000000,139.821339
rcot,48,0,2024-02-26T16:56:05.593Z,male_vraiment_flat_3.wav,1,False,2276,53,m,1,0.071043,-90.088416
rcot,48,0,2024-02-26T16:56:05.593Z,male_vraiment_flat_3.wav,1,False,2276,53,m,2,0.142086,-144.376143
rcot,48,0,2024-02-26T16:56:05.593Z,male_vraiment_flat_3.wav,1,False,2276,53,m,3,0.213129,-83.117215
rcot,48,0,2024-02-26T16:56:05.593Z,male_vraiment_flat_3.wav,1,False,2276,53,m,4,0.284172,-15.266959
rcot,48,0,2024-02-26T16:56:05.593Z,male_vraiment_flat_3.wav,1,False,2276,53,m,5,0.355215,-78.645111
rcot,48,0,2024-02-26T16:56:05.593Z,male_vraiment_flat_3.wav,1,False,2276,53,m,6,0.426259,18.566710
rcot,49,0,2024-02-26T16:56:05.593Z,male_vraiment_flat_59.wav,0,True,4788,53,m,0,0.000000,-36.418372
rcot,49,0,2024-02-26T16:56:05.593Z,male_vraiment_flat_59.wav,0,True,4788,53,m,1,0.071043,84.104587
rcot,49,0,2024-02-26T16:56:05.593Z,male_vraiment_flat_59.wav,0,True,4788,53,m,2,0.142086,132.070943
rcot,49,0,2024-02-26T16:56:05.593Z,male_vraiment_flat_59.wav,0,True,4788,53,m,3,0.213129,-36.088233
rcot,49,0,2024-02-26T16:56:05.593Z,male_vraiment_flat_59.wav,0,True,4788,53,m,4,0.284172,-93.351425
rcot,49,0,2024-02-26T16:56:05.593Z,male_vraiment_flat_59.wav,0,True,4788,53,m,5,0.355215,57.665522
rcot,49,0,2024-02-26T16:56:05.593Z,male_vraiment_flat_59.wav,0,True,4788,53,m,6,0.426259,137.323922
rcot,49,0,2024-02-26T16:56:05.593Z,male_vraiment_flat_92.wav,1,False,4788,53,m,0,0.000000,46.869845
rcot,49,0,2024-02-26T16:56:05.593Z,male_vraiment_flat_92.wav,1,False,4788,53,m,1,0.071043,-22.303854
rcot,49,0,2024-02-26T16:56:05.593Z,male_vraiment_flat_92.wav,1,False,4788,53,m,2,0.142086,54.218629
rcot,49,0,2024-02-26T16:56:05.593Z,male_vraiment_flat_92.wav,1,False,4788,53,m,3,0.213129,-37.706610
rcot,49,0,2024-02-26T16:56:05.593Z,male_vraiment_flat_92.wav,1,False,4788,53,m,4,0.284172,48.467677
rcot,49,0,2024-02-26T16:56:05.593Z,male_vraiment_flat_92.wav,1,False,4788,53,m,5,0.355215,-36.671620
rcot,49,0,2024-02-26T16:56:05.593Z,male_vraiment_flat_92.wav,1,False,4788,53,m,6,0.426259,-103.238186
rcot,50,1,2024-02-26T16:56:05.593Z,male_vraiment_flat_168.wav,0,False,1604,53,m,0,0.000000,20.996757
rcot,50,1,2024-02-26T16:56:05.593Z,male_vraiment_flat_168.wav,0,False,1604,53,m,1,0.071043,53.221671
rcot,50,1,2024-02-26T16:56:05.593Z,male_vraiment_flat_168.wav,0,False,1604,53,m,2,0.142086,15.731623
rcot,50,1,2024-02-26T16:56:05.593Z,male_vraiment_flat_168.wav,0,False,1604,53,m,3,0.213129,99.382807
rcot,50,1,2024-02-26T16:56:05.593Z,male_vraiment_flat_168.wav,0,False,1604,53,m,4,0.284172,-57.914754
rcot,50,1,2024-02-26T16:56:05.593Z,male_vraiment_flat_168.wav,0,False,1604,53,m,5,0.355215,26.961730
rcot,50,1,2024-02-26T16:56:05.593Z,male_vraiment_flat_168.wav,0,False,1604,53,m,6,0.426259,-63.149674
rcot,50,1,2024-02-26T16:56:05.593Z,male_vraiment_flat_113.wav,1,True,1604,53,m,0,0.000000,52.176539
rcot,50,1,2024-02-26T16:56:05.593Z,male_vraiment_flat_113.wav,1,True,1604,53,m,1,0.071043,52.904766
rcot,50,1,2024-02-26T16:56:05.593Z,male_vraiment_flat_113.wav,1,True,1604,53,m,2,0.142086,-138.473207
rcot,50,1,2024-02-26T16:56:05.593Z,male_vraiment_flat_113.wav,1,True,1604,53,m,3,0.213129,-65.217652
rcot,50,1,2024-02-26T16:56:05.593Z,male_vraiment_flat_113.wav,1,True,1604,53,m,4,0.284172,3.928053
rcot,50,1,2024-02-26T16:56:05.593Z,male_vraiment_flat_113.wav,1,True,1604,53,m,5,0.355215,69.229623
rcot,50,1,2024-02-26T16:56:05.593Z,male_vraiment_flat_113.wav,1,True,1604,53,m,6,0.426259,-85.157528
rcot,51,1,2024-02-26T16:56:05.593Z,male_vraiment_flat_167.wav,0,False,1956,53,m,0,0.000000,-97.244470
rcot,51,1,2024-02-26T16:56:05.593Z,male_vraiment_flat_167.wav,0,False,1956,53,m,1,0.071043,55.519403
rcot,51,1,2024-02-26T16:56:05.593Z,male_vraiment_flat_167.wav,0,False,1956,53,m,2,0.142086,-125.285214
rcot,51,1,2024-02-26T16:56:05.593Z,male_vraiment_flat_167.wav,0,False,1956,53,m,3,0.213129,-87.843825
rcot,51,1,2024-02-26T16:56:05.593Z,male_vraiment_flat_167.wav,0,False,1956,53,m,4,0.284172,-127.750284
rcot,51,1,2024-02-26T16:56:05.593Z,male_vraiment_flat_167.wav,0,False,1956,53,m,5,0.355215,-93.631866
rcot,51,1,2024-02-26T16:56:05.593Z,male_vraiment_flat_167.wav,0,False,1956,53,m,6,0.426259,6.691804
rcot,51,1,2024-02-26T16:56:05.593Z,male_vraiment_flat_155.wav,1,True,1956,53,m,0,0.000000,-140.284917
rcot,51,1,2024-02-26T16:56:05.593Z,male_vraiment_flat_155.wav,1,True,1956,53,m,1,0.071043,56.043903
rcot,51,1,2024-02-26T16:56:05.593Z,male_vraiment_flat_155.wav,1,True,1956,53,m,2,0.142086,-2.142699
rcot,51,1,2024-02-26T16:56:05.593Z,male_vraiment_flat_155.wav,1,True,1956,53,m,3,0.213129,-41.999388
rcot,51,1,2024-02-26T16:56:05.593Z,male_vraiment_flat_155.wav,1,True,1956,53,m,4,0.284172,-69.522618
rcot,51,1,2024-02-26T16:56:05.593Z,male_vraiment_flat_155.wav,1,True,1956,53,m,5,0.355215,29.697532
rcot,51,1,2024-02-26T16:56:05.593Z,male_vraiment_flat_155.wav,1,True,1956,53,m,6,0.426259,40.565741
rcot,52,1,2024-02-26T16:56:05.593Z,male_vraiment_flat_47.wav,0,False,2097,53,m,0,0.000000,11.243959
rcot,52,1,2024-02-26T16:56:05.593Z,male_vraiment_flat_47.wav,0,False,2097,53,m,1,0.071043,-131.885563
rcot,52,1,2024-02-26T16:56:05.593Z,male_vraiment_flat_47.wav,0,False,2097,53,m,2,0.142086,22.720944
rcot,52,1,2024-02-26T16:56:05.593Z,male_vraiment_flat_47.wav,0,False,2097,53,m,3,0.213129,-98.981706
rcot,52,1,2024-02-26T16:56:05.593Z,male_vraiment_flat_47.wav,0,False,2097,53,m,4,0.284172,-117.392555
rcot,52,1,2024-02-26T16:56:05.593Z,male_vraiment_flat_47.wav,0,False,2097,53,m,5,0.355215,-7.362816
rcot,52,1,2024-02-26T16:56:05.593Z,male_vraiment_flat_47.wav,0,False,2097,53,m,6,0.426259,149.963589
rcot,52,1,2024-02-26T16:56:05.593Z,male_vraiment_flat_108.wav,1,True,2097,53,m,0,0.000000,92.203113
rcot,52,1,2024-02-26T16:56:05.593Z,male_vraiment_flat_108.wav,1,True,2097,53,m,1,0.071043,-74.681876
rcot,52,1,2024-02-26T16:56:05.593Z,male_vraiment_flat_108.wav,1,True,2097,53,m,2,0.142086,-18.773488
rcot,52,1,2024-02-26T16:56:05.593Z,male_vraiment_flat_108.wav,1,True,2097,53,m,3,0.213129,73.054230
rcot,52,1,2024-02-26T16:56:05.593Z,male_vraiment_flat_108.wav,1,True,2097,53,m,4,0.284172,-72.824646
rcot,52,1,2024-02-26T16:56:05.593Z,male_vraiment_flat_108.wav,1,True,2097,53,m,5,0.355215,140.895697
rcot,52,1,2024-02-26T16:56:05.593Z,male_vraiment_flat_108.wav,1,True,2097,53,m,6,0.426259,13.161932
rcot,53,1,2024-02-26T16:56:05.593Z,male_vraiment_flat_118.wav,0,True,566,53,m,0,0.000000,126.187147
rcot,53,1,2024-02-26T16:56:05.593Z,male_vraiment_flat_118.wav,0,True,566,53,m,1,0.071043,44.969184
rcot,53,1,2024-02-26T16:56:05.593Z,male_vraiment_flat_118.wav,0,True,566,53,m,2,0.142086,-108.017243
rcot,53,1,2024-02-26T16:56:05.593Z,male_vraiment_flat_118.wav,0,True,566,53,m,3,0.213129,6.480803
rcot,53,1,2024-02-26T16:56:05.593Z,male_vraiment_flat_118.wav,0,True,566,53,m,4,0.284172,89.811831
rcot,53,1,2024-02-26T16:56:05.593Z,male_vraiment_flat_118.wav,0,True,566,53,m,5,0.355215,60.034007
rcot,53,1,2024-02-26T16:56:05.593Z,male_vraiment_flat_118.wav,0,True,566,53,m,6,0.426259,63.317816
rcot,53,1,2024-02-26T16:56:05.593Z,male_vraiment_flat_143.wav,1,False,566,53,m,0,0.000000,-11.669164
rcot,53,1,2024-02-26T16:56:05.593Z,male_vraiment_flat_143.wav,1,False,566,53,m,1,0.071043,-18.385217
rcot,53,1,2024-02-26T16:56:05.593Z,male_vraiment_flat_143.wav,1,False,566,53,m,2,0.142086,88.645793
rcot,53,1,2024-02-26T16:56:05.593Z,male_vraiment_flat_143.wav,1,False,566,53,m,3,0.213129,-2.720338
rcot,53,1,2024-02-26T16:56:05.593Z,male_vraiment_flat_143.wav,1,False,566,53,m,4,0.284172,-37.224869
rcot,53,1,2024-02-26T16:56:05.593Z,male_vraiment_flat_143.wav,1,False,566,53,m,5,0.355215,-143.685714
rcot,53,1,2024-02-26T16:56:05.593Z,male_vraiment_flat_143.wav,1,False,566,53,m,6,0.426259,-125.491494
rcot,54,1,2024-02-26T16:56:05.593Z,male_vraiment_flat_111.wav,0,True,832,53,m,0,0.000000,-76.898484
rcot,54,1,2024-02-26T16:56:05.593Z,male_vraiment_flat_111.wav,0,True,832,53,m,1,0.071043,128.576704
rcot,54,1,2024-02-26T16:56:05.593Z,male_vraiment_flat_111.wav,0,True,832,53,m,2,0.142086,84.475821
rcot,54,1,2024-02-26T16:56:05.593Z,male_vraiment_flat_111.wav,0,True,832,53,m,3,0.213129,13.962019
rcot,54,1,2024-02-26T16:56:05.593Z,male_vraiment_flat_111.wav,0,True,832,53,m,4,0.284172,80.950376
rcot,54,1,2024-02-26T16:56:05.593Z,male_vraiment_flat_111.wav,0,True,832,53,m,5,0.355215,105.627204
rcot,54,1,2024-02-26T16:56:05.593Z,male_vraiment_flat_111.wav,0,True,832,53,m,6,0.426259,86.259873
rcot,54,1,2024-02-26T16:56:05.593Z,male_vraiment_flat_180.wav,1,False,832,53,m,0,0.000000,-17.910938
rcot,54,1,2024-02-26T16:56:05.593Z,male_vraiment_flat_180.wav,1,False,832,53,m,1,0.071043,24.825304
rcot,54,1,2024-02-26T16:56:05.593Z,male_vraiment_flat_180.wav,1,False,832,53,m,2,0.142086,-141.305904
rcot,54,1,2024-02-26T16:56:05.593Z,male_vraiment_flat_180.wav,1,False,832,53,m,3,0.213129,39.379988
rcot,54,1,2024-02-26T16:56:05.593Z,male_vraiment_flat_180.wav,1,False,832,53,m,4,0.284172,-132.932424
rcot,54,1,2024-02-26T16:56:05.593Z,male_vraiment_flat_180.wav,1,False,832,53,m,5,0.355215,-6.123363
rcot,54,1,2024-02-26T16:56:05.593Z,male_vraiment_flat_180.wav,1,False,832,53,m,6,0.426259,-0.737662
rcot,55,1,2024-02-26T16:56:05.593Z,male_vraiment_flat_98.wav,0,False,1301,53,m,0,0.000000,102.170357
rcot,55,1,2024-02-26T16:56:05.593Z,male_vraiment_flat_98.wav,0,False,1301,53,m,1,0.071043,20.715456
rcot,55,1,2024-02-26T16:56:05.593Z,male_vraiment_flat_98.wav,0,False,1301,53,m,2,0.142086,81.972821
rcot,55,1,2024-02-26T16:56:05.593Z,male_vraiment_flat_98.wav,0,False,1301,53,m,3,0.213129,-125.018297
rcot,55,1,2024-02-26T16:56:05.593Z,male_vraiment_flat_98.wav,0,False,1301,53,m,4,0.284172,103.374214
rcot,55,1,2024-02-26T16:56:05.593Z,male_vraiment_flat_98.wav,0,False,1301,53,m,5,0.355215,-81.704677
rcot,55,1,2024-02-26T16:56:05.593Z,male_vraiment_flat_98.wav,0,False,1301,53,m,6,0.426259,85.109238
rcot,55,1,2024-02-26T16:56:05.593Z,male_vraiment_flat_135.wav,1,True,1301,53,m,0,0.000000,69.664553
rcot,55,1,2024-02-26T16:56:05.593Z,male_vraiment_flat_135.wav,1,True,1301,53,m,1,0.071043,-40.692966
rcot,55,1,2024-02-26T16:56:05.593Z,male_vraiment_flat_135.wav,1,True,1301,53,m,2,0.142086,-94.283336
rcot,55,1,2024-02-26T16:56:05.593Z,male_vraiment_flat_135.wav,1,True,1301,53,m,3,0.213129,7.777910
rcot,55,1,2024-02-26T16:56:05.593Z,male_vraiment_flat_135.wav,1,True,1301,53,m,4,0.284172,26.713191
rcot,55,1,2024-02-26T16:56:05.593Z,male_vraiment_flat_135.wav,1,True,1301,53,m,5,0.355215,137.292776
rcot,55,1,2024-02-26T16:56:05.593Z,male_vraiment_flat_135.wav,1,True,1301,53,m,6,0.426259,-136.153804
rcot,56,1,2024-02-26T16:56:05.593Z,male_vraiment_flat_199.wav,0,True,3679,53,m,0,0.000000,-30.664010
rcot,56,1,2024-02-26T16:56:05.593Z,male_vraiment_flat_199.wav,0,True,3679,53,m,1,0.071043,2.060872
rcot,56,1,2024-02-26T16:56:05.593Z,male_vraiment_flat_199.wav,0,True,3679,53,m,2,0.142086,-136.256691
rcot,56,1,2024-02-26T16:56:05.593Z,male_vraiment_flat_199.wav,0,True,3679,53,m,3,0.213129,20.654546
rcot,56,1,2024-02-26T16:56:05.593Z,male_vraiment_flat_199.wav,0,True,3679,53,m,4,0.284172,41.179386
rcot,56,1,2024-02-26T16:56:05.593Z,male_vraiment_flat_199.wav,0,True,3679,53,m,5,0.355215,1.343346
rcot,56,1,2024-02-26T16:56:05.593Z,male_vraiment_flat_199.wav,0,True,3679,53,m,6,0.426259,140.228288
rcot,56,1,2024-02-26T16:56:05.593Z,male_vraiment_flat_147.wav,1,False,3679,53,m,0,0.000000,-109.572708
rcot,56,1,2024-02-26T16:56:05.593Z,male_vraiment_flat_147.wav,1,False,3679,53,m,1,0.071043,-50.943910
rcot,56,1,2024-02-26T16:56:05.593Z,male_vraiment_flat_147.wav,1,False,3679,53,m,2,0.142086,145.950821
rcot,56,1,2024-02-26T16:56:05.593Z,male_vraiment_flat_147.wav,1,False,3679,53,m,3,0.213129,141.813801
rcot,56,1,2024-02-26T16:56:05.593Z,male_vraiment_flat_147.wav,1,False,3679,53,m,4,0.284172,53.597843
rcot,56,1,2024-02-26T16:56:05.593Z,male_vraiment_flat_147.wav,1,False,3679,53,m,5,0.355215,-21.310214
rcot,56,1,2024-02-26T16:56:05.593Z,male_vraiment_flat_147.wav,1,False,3679,53,m,6,0.426259,-94.477021
rcot,57,1,2024-02-26T16:56:05.593Z,male_vraiment_flat_53.wav,0,True,856,53,m,0,0.000000,12.794375
rcot,57,1,2024-02-26T16:56:05.593Z,male_vraiment_flat_53.wav,0,True,856,53,m,1,0.071043,72.488609
rcot,57,1,2024-02-26T16:56:05.593Z,male_vraiment_flat_53.wav,0,True,856,53,m,2,0.142086,82.753367
rcot,57,1,2024-02-26T16:56:05.593Z,male_vraiment_flat_53.wav,0,True,856,53,m,3,0.213129,-11.724600
rcot,57,1,2024-02-26T16:56:05.593Z,male_vraiment_flat_53.wav,0,True,856,53,m,4,0.284172,8.499299
rcot,57,1,2024-02-26T16:56:05.593Z,male_vraiment_flat_53.wav,0,True,856,53,m,5,0.355215,84.468722
rcot,57,1,2024-02-26T16:56:05.593Z,male_vraiment_flat_53.wav,0,True,856,53,m,6,0.426259,-88.580062
rcot,57,1,2024-02-26T16:56:05.593Z,male_vraiment_flat_51.wav,1,False,856,53,m,0,0.000000,130.517111
rcot,57,1,2024-02-26T16:56:05.593Z,male_vraiment_flat_51.wav,1,False,856,53,m,1,0.071043,138.869679
rcot,57,1,2024-02-26T16:56:05.593Z,male_vraiment_flat_51.wav,1,False,856,53,m,2,0.142086,-34.276776
rcot,57,1,2024-02-26T16:56:05.593Z,male_vraiment_flat_51.wav,1,False,856,53,m,3,0.213129,76.935346
rcot,57,1,2024-02-26T16:56:05.593Z,male_vraiment_flat_51.wav,1,False,856,53,m,4,0.284172,-118.523911
rcot,57,1,2024-02-26T16:56:05.593Z,male_vraiment_flat_51.wav,1,False,856,53,m,5,0.355215,-103.328524
rcot,57,1,2024-02-26T16:56:05.593Z,male_vraiment_flat_51.wav,1,False,856,53,m,6,0.426259,-14.442096
rcot,58,1,2024-02-26T16:56:05.593Z,male_vraiment_flat_85.wav,0,True,3289,53,m,0,0.000000,16.220058
rcot,58,1,2024-02-26T16:56:05.593Z,male_vraiment_flat_85.wav,0,True,3289,53,m,1,0.071043,97.172848
rcot,58,1,2024-02-26T16:56:05.593Z,male_vraiment_flat_85.wav,0,True,3289,53,m,2,0.142086,121.919735
rcot,58,1,2024-02-26T16:56:05.593Z,male_vraiment_flat_85.wav,0,True,3289,53,m,3,0.213129,69.049273
rcot,58,1,2024-02-26T16:56:05.593Z,male_vraiment_flat_85.wav,0,True,3289,53,m,4,0.284172,124.256579
rcot,58,1,2024-02-26T16:56:05.593Z,male_vraiment_flat_85.wav,0,True,3289,53,m,5,0.355215,30.981006
rcot,58,1,2024-02-26T16:56:05.593Z,male_vraiment_flat_85.wav,0,True,3289,53,m,6,0.426259,-67.410158
rcot,58,1,2024-02-26T16:56:05.593Z,male_vraiment_flat_134.wav,1,False,3289,53,m,0,0.000000,85.320049
rcot,58,1,2024-02-26T16:56:05.593Z,male_vraiment_flat_134.wav,1,False,3289,53,m,1,0.071043,2.147850
rcot,58,1,2024-02-26T16:56:05.593Z,male_vraiment_flat_134.wav,1,False,3289,53,m,2,0.142086,140.355465
rcot,58,1,2024-02-26T16:56:05.593Z,male_vraiment_flat_134.wav,1,False,3289,53,m,3,0.213129,98.923070
rcot,58,1,2024-02-26T16:56:05.593Z,male_vraiment_flat_134.wav,1,False,3289,53,m,4,0.284172,20.388975
rcot,58,1,2024-02-26T16:56:05.593Z,male_vraiment_flat_134.wav,1,False,3289,53,m,5,0.355215,-4.239426
rcot,58,1,2024-02-26T16:56:05.593Z,male_vraiment_flat_134.wav,1,False,3289,53,m,6,0.426259,83.444299
rcot,59,1,2024-02-26T16:56:05.593Z,male_vraiment_flat_96.wav,0,True,2258,53,m,0,0.000000,94.448216
rcot,59,1,2024-02-26T16:56:05.593Z,male_vraiment_flat_96.wav,0,True,2258,53,m,1,0.071043,52.639741
rcot,59,1,2024-02-26T16:56:05.593Z,male_vraiment_flat_96.wav,0,True,2258,53,m,2,0.142086,12.600351
rcot,59,1,2024-02-26T16:56:05.593Z,male_vraiment_flat_96.wav,0,True,2258,53,m,3,0.213129,53.097554
rcot,59,1,2024-02-26T16:56:05.593Z,male_vraiment_flat_96.wav,0,True,2258,53,m,4,0.284172,-62.165310
rcot,59,1,2024-02-26T16:56:05.593Z,male_vraiment_flat_96.wav,0,True,2258,53,m,5,0.355215,18.022684
rcot,59,1,2024-02-26T16:56:05.593Z,male_vraiment_flat_96.wav,0,True,2258,53,m,6,0.426259,-9.714791
rcot,59,1,2024-02-26T16:56:05.593Z,male_vraiment_flat_39.wav,1,False,2258,53,m,0,0.000000,111.266402
rcot,59,1,2024-02-26T16:56:05.593Z,male_vraiment_flat_39.wav,1,False,2258,53,m,1,0.071043,99.799676
rcot,59,1,2024-02-26T16:56:05.593Z,male_vraiment_flat_39.wav,1,False,2258,53,m,2,0.142086,45.272629
rcot,59,1,2024-02-26T16:56:05.593Z,male_vraiment_flat_39.wav,1,False,2258,53,m,3,0.213129,-145.406877
rcot,59,1,2024-02-26T16:56:05.593Z,male_vraiment_flat_39.wav,1,False,2258,53,m,4,0.284172,46.363124
rcot,59,1,2024-02-26T16:56:05.593Z,male_vraiment_flat_39.wav,1,False,2258,53,m,5,0.355215,90.908213
rcot,59,1,2024-02-26T16:56:05.593Z,male_vraiment_flat_39.wav,1,False,2258,53,m,6,0.426259,-13.802222
rcot,60,1,2024-02-26T16:56:05.593Z,male_vraiment_flat_70.wav,0,True,3898,53,m,0,0.000000,-95.640606
rcot,60,1,2024-02-26T16:56:05.593Z,male_vraiment_flat_70.wav,0,True,3898,53,m,1,0.071043,17.584667
rcot,60,1,2024-02-26T16:56:05.593Z,male_vraiment_flat_70.wav,0,True,3898,53,m,2,0.142086,9.439432
rcot,60,1,2024-02-26T16:56:05.593Z,male_vraiment_flat_70.wav,0,True,3898,53,m,3,0.213129,26.204853
rcot,60,1,2024-02-26T16:56:05.593Z,male_vraiment_flat_70.wav,0,True,3898,53,m,4,0.284172,19.735476
rcot,60,1,2024-02-26T16:56:05.593Z,male_vraiment_flat_70.wav,0,True,3898,53,m,5,0.355215,-45.465161
rcot,60,1,2024-02-26T16:56:05.593Z,male_vraiment_flat_70.wav,0,True,3898,53,m,6,0.426259,24.901866
rcot,60,1,2024-02-26T16:56:05.593Z,male_vraiment_flat_8.wav,1,False,3898,53,m,0,0.000000,88.027847
rcot,60,1,2024-02-26T16:56:05.593Z,male_vraiment_flat_8.wav,1,False,3898,53,m,1,0.071043,-108.976227
rcot,60,1,2024-02-26T16:56:05.593Z,male_vraiment_flat_8.wav,1,False,3898,53,m,2,0.142086,36.591048
rcot,60,1,2024-02-26T16:56:05.593Z,male_vraiment_flat_8.wav,1,False,3898,53,m,3,0.213129,7.260113
rcot,60,1,2024-02-26T16:56:05.593Z,male_vraiment_flat_8.wav,1,False,3898,53,m,4,0.284172,-133.690195
rcot,60,1,2024-02-26T16:56:05.593Z,male_vraiment_flat_8.wav,1,False,3898,53,m,5,0.355215,9.464811
rcot,60,1,2024-02-26T16:56:05.593Z,male_vraiment_flat_8.wav,1,False,3898,53,m,6,0.426259,-67.780032
rcot,61,1,2024-02-26T16:56:05.593Z,male_vraiment_flat_186.wav,0,False,2282,53,m,0,0.000000,-146.338275
rcot,61,1,2024-02-26T16:56:05.593Z,male_vraiment_flat_186.wav,0,False,2282,53,m,1,0.071043,17.632346
rcot,61,1,2024-02-26T16:56:05.593Z,male_vraiment_flat_186.wav,0,False,2282,53,m,2,0.142086,135.683559
rcot,61,1,2024-02-26T16:56:05.593Z,male_vraiment_flat_186.wav,0,False,2282,53,m,3,0.213129,133.054558
rcot,61,1,2024-02-26T16:56:05.593Z,male_vraiment_flat_186.wav,0,False,2282,53,m,4,0.284172,-31.983178
rcot,61,1,2024-02-26T16:56:05.593Z,male_vraiment_flat_186.wav,0,False,2282,53,m,5,0.355215,-117.937109
rcot,61,1,2024-02-26T16:56:05.593Z,male_vraiment_flat_186.wav,0,False,2282,53,m,6,0.426259,-78.681829
rcot,61,1,2024-02-26T16:56:05.593Z,male_vraiment_flat_75.wav,1,True,2282,53,m,0,0.000000,-102.776376
rcot,61,1,2024-02-26T16:56:05.593Z,male_vraiment_flat_75.wav,1,True,2282,53,m,1,0.071043,141.116849
rcot,61,1,2024-02-26T16:56:05.593Z,male_vraiment_flat_75.wav,1,True,2282,53,m,2,0.142086,12.209007
rcot,61,1,2024-02-26T16:56:05.593Z,male_vraiment_flat_75.wav,1,True,2282,53,m,3,0.213129,-138.758513
rcot,61,1,2024-02-26T16:56:05.593Z,male_vraiment_flat_75.wav,1,True,2282,53,m,4,0.284172,4.940697
rcot,61,1,2024-02-26T16:56:05.593Z,male_vraiment_flat_75.wav,1,True,2282,53,m,5,0.355215,67.499606
rcot,61,1,2024-02-26T16:56:05.593Z,male_vraiment_flat_75.wav,1,True,2282,53,m,6,0.426259,61.725226
rcot,62,1,2024-02-26T16:56:05.593Z,male_vraiment_flat_14.wav,0,True,3482,53,m,0,0.000000,-139.491371
rcot,62,1,2024-02-26T16:56:05.593Z,male_vraiment_flat_14.wav,0,True,3482,53,m,1,0.071043,-89.621492
rcot,62,1,2024-02-26T16:56:05.593Z,male_vraiment_flat_14.wav,0,True,3482,53,m,2,0.142086,-85.009614
rcot,62,1,2024-02-26T16:56:05.593Z,male_vraiment_flat_14.wav,0,True,3482,53,m,3,0.213129,-29.902058
rcot,62,1,2024-02-26T16:56:05.593Z,male_vraiment_flat_14.wav,0,True,3482,53,m,4,0.284172,-86.665261
rcot,62,1,2024-02-26T16:56:05.593Z,male_vraiment_flat_14.wav,0,True,3482,53,m,5,0.355215,27.459037
rcot,62,1,2024-02-26T16:56:05.593Z,male_vraiment_flat_14.wav,0,True,3482,53,m,6,0.426259,33.245669
rcot,62,1,2024-02-26T16:56:05.593Z,male_vraiment_flat_89.wav,1,False,3482,53,m,0,0.000000,109.966045
rcot,62,1,2024-02-26T16:56:05.593Z,male_vraiment_flat_89.wav,1,False,3482,53,m,1,0.071043,3.952874
rcot,62,1,2024-02-26T16:56:05.593Z,male_vraiment_flat_89.wav,1,False,3482,53,m,2,0.142086,14.687736
rcot,62,1,2024-02-26T16:56:05.593Z,male_vraiment_flat_89.wav,1,False,3482,53,m,3,0.213129,-59.041416
rcot,62,1,2024-02-26T16:56:05.593Z,male_vraiment_flat_89.wav,1,False,3482,53,m,4,0.284172,-42.151762
rcot,62,1,2024-02-26T16:56:05.593Z,male_vraiment_flat_89.wav,1,False,3482,53,m,5,0.355215,-148.779325
rcot,62,1,2024-02-26T16:56:05.593Z,male_vraiment_flat_89.wav,1,False,3482,53,m,6,0.426259,-61.315288
rcot,63,1,2024-02-26T16:56:05.593Z,male_vraiment_flat_33.wav,0,True,6494,53,m,0,0.000000,77.429006
rcot,63,1,2024-02-26T16:56:05.593Z,male_vraiment_flat_33.wav,0,True,6494,53,m,1,0.071043,25.170622
rcot,63,1,2024-02-26T16:56:05.593Z,male_vraiment_flat_33.wav,0,True,6494,53,m,2,0.142086,-65.854422
rcot,63,1,2024-02-26T16:56:05.593Z,male_vraiment_flat_33.wav,0,True,6494,53,m,3,0.213129,106.380035
rcot,63,1,2024-02-26T16:56:05.593Z,male_vraiment_flat_33.wav,0,True,6494,53,m,4,0.284172,126.948212
rcot,63,1,2024-02-26T16:56:05.593Z,male_vraiment_flat_33.wav,0,True,6494,53,m,5,0.355215,88.675782
rcot,63,1,2024-02-26T16:56:05.593Z,male_vraiment_flat_33.wav,0,True,6494,53,m,6,0.426259,-129.822255
rcot,63,1,2024-02-26T16:56:05.593Z,male_vraiment_flat_31.wav,1,False,6494,53,m,0,0.000000,-118.123136
rcot,63,1,2024-02-26T16:56:05.593Z,male_vraiment_flat_31.wav,1,False,6494,53,m,1,0.071043,-54.324615
rcot,63,1,2024-02-26T16:56:05.593Z,male_vraiment_flat_31.wav,1,False,6494,53,m,2,0.142086,-56.463303
rcot,63,1,2024-02-26T16:56:05.593Z,male_vraiment_flat_31.wav,1,False,6494,53,m,3,0.213129,65.563679
rcot,63,1,2024-02-26T16:56:05.593Z,male_vraiment_flat_31.wav,1,False,6494,53,m,4,0.284172,91.438424
rcot,63,1,2024-02-26T16:56:05.593Z,male_vraiment_flat_31.wav,1,False,6494,53,m,5,0.355215,-2.661707
rcot,63,1,2024-02-26T16:56:05.593Z,male_vraiment_flat_31.wav,1,False,6494,53,m,6,0.426259,-48.318391
rcot,64,1,2024-02-26T16:56:05.593Z,male_vraiment_flat_114.wav,0,False,854,53,m,0,0.000000,-107.614700
rcot,64,1,2024-02-26T16:56:05.593Z,male_vraiment_flat_114.wav,0,False,854,53,m,1,0.071043,-121.606705
rcot,64,1,2024-02-26T16:56:05.593Z,male_vraiment_flat_114.wav,0,False,854,53,m,2,0.142086,26.820871
rcot,64,1,2024-02-26T16:56:05.593Z,male_vraiment_flat_114.wav,0,False,854,53,m,3,0.213129,42.957584
rcot,64,1,2024-02-26T16:56:05.593Z,male_vraiment_flat_114.wav,0,False,854,53,m,4,0.284172,-48.053802
rcot,64,1,2024-02-26T16:56:05.593Z,male_vraiment_flat_114.wav,0,False,854,53,m,5,0.355215,-10.474627
rcot,64,1,2024-02-26T16:56:05.593Z,male_vraiment_flat_114.wav,0,False,854,53,m,6,0.426259,-131.069216
rcot,64,1,2024-02-26T16:56:05.593Z,male_vraiment_flat_80.wav,1,True,854,53,m,0,0.000000,74.549472
rcot,64,1,2024-02-26T16:56:05.593Z,male_vraiment_flat_80.wav,1,True,854,53,m,1,0.071043,28.548945
rcot,64,1,2024-02-26T16:56:05.593Z,male_vraiment_flat_80.wav,1,True,854,53,m,2,0.142086,-70.639605
rcot,64,1,2024-02-26T16:56:05.593Z,male_vraiment_flat_80.wav,1,True,854,53,m,3,0.213129,105.678511
rcot,64,1,2024-02-26T16:56:05.593Z,male_vraiment_flat_80.wav,1,True,854,53,m,4,0.284172,54.429698
rcot,64,1,2024-02-26T16:56:05.593Z,male_vraiment_flat_80.wav,1,True,854,53,m,5,0.355215,38.972413
rcot,64,1,2024-02-26T16:56:05.593Z,male_vraiment_flat_80.wav,1,True,854,53,m,6,0.426259,36.313071
rcot,65,1,2024-02-26T16:56:05.593Z,male_vraiment_flat_16.wav,0,True,1919,53,m,0,0.000000,141.243943
rcot,65,1,2024-02-26T16:56:05.593Z,male_vraiment_flat_16.wav,0,True,1919,53,m,1,0.071043,-34.322435
rcot,65,1,2024-02-26T16:56:05.593Z,male_vraiment_flat_16.wav,0,True,1919,53,m,2,0.142086,10.018864
rcot,65,1,2024-02-26T16:56:05.593Z,male_vraiment_flat_16.wav,0,True,1919,53,m,3,0.213129,-24.066951
rcot,65,1,2024-02-26T16:56:05.593Z,male_vraiment_flat_16.wav,0,True,1919,53,m,4,0.284172,45.502655
rcot,65,1,2024-02-26T16:56:05.593Z,male_vraiment_flat_16.wav,0,True,1919,53,m,5,0.355215,107.276086
rcot,65,1,2024-02-26T16:56:05.593Z,male_vraiment_flat_16.wav,0,True,1919,53,m,6,0.426259,58.110380
rcot,65,1,2024-02-26T16:56:05.593Z,male_vraiment_flat_165.wav,1,False,1919,53,m,0,0.000000,-133.486308
rcot,65,1,2024-02-26T16:56:05.593Z,male_vraiment_flat_165.wav,1,False,1919,53,m,1,0.071043,-51.704384
rcot,65,1,2024-02-26T16:56:05.593Z,male_vraiment_flat_165.wav,1,False,1919,53,m,2,0.142086,123.734410
rcot,65,1,2024-02-26T16:56:05.593Z,male_vraiment_flat_165.wav,1,False,1919,53,m,3,0.213129,-122.063627
rcot,65,1,2024-02-26T16:56:05.593Z,male_vraiment_flat_165.wav,1,False,1919,53,m,4,0.284172,105.373754
rcot,65,1,2024-02-26T16:56:05.593Z,male_vraiment_flat_165.wav,1,False,1919,53,m,5,0.355215,42.489978
rcot,65,1,2024-02-26T16:56:05.593Z,male_vraiment_flat_165.wav,1,False,1919,53,m,6,0.426259,65.536300
rcot,66,1,2024-02-26T16:56:05.593Z,male_vraiment_flat_5.wav,0,True,1527,53,m,0,0.000000,88.556797
rcot,66,1,2024-02-26T16:56:05.593Z,male_vraiment_flat_5.wav,0,True,1527,53,m,1,0.071043,120.959384
rcot,66,1,2024-02-26T16:56:05.593Z,male_vraiment_flat_5.wav,0,True,1527,53,m,2,0.142086,-116.065822
rcot,66,1,2024-02-26T16:56:05.593Z,male_vraiment_flat_5.wav,0,True,1527,53,m,3,0.213129,130.464712
rcot,66,1,2024-02-26T16:56:05.593Z,male_vraiment_flat_5.wav,0,True,1527,53,m,4,0.284172,88.167919
rcot,66,1,2024-02-26T16:56:05.593Z,male_vraiment_flat_5.wav,0,True,1527,53,m,5,0.355215,75.417329
rcot,66,1,2024-02-26T16:56:05.593Z,male_vraiment_flat_5.wav,0,True,1527,53,m,6,0.426259,65.499211
rcot,66,1,2024-02-26T16:56:05.593Z,male_vraiment_flat_163.wav,1,False,1527,53,m,0,0.000000,-73.767207
rcot,66,1,2024-02-26T16:56:05.593Z,male_vraiment_flat_163.wav,1,False,1527,53,m,1,0.071043,23.213677
rcot,66,1,2024-02-26T16:56:05.593Z,male_vraiment_flat_163.wav,1,False,1527,53,m,2,0.142086,-14.939662
rcot,66,1,2024-02-26T16:56:05.593Z,male_vraiment_flat_163.wav,1,False,1527,53,m,3,0.213129,-71.864469
rcot,66,1,2024-02-26T16:56:05.593Z,male_vraiment_flat_163.wav,1,False,1527,53,m,4,0.284172,-38.295965
rcot,66,1,2024-02-26T16:56:05.593Z,male_vraiment_flat_163.wav,1,False,1527,53,m,5,0.355215,-52.851418
rcot,66,1,2024-02-26T16:56:05.593Z,male_vraiment_flat_163.wav,1,False,1527,53,m,6,0.426259,-70.943671
rcot,67,1,2024-02-26T16:56:05.593Z,male_vraiment_flat_145.wav,0,False,906,53,m,0,0.000000,-57.363512
rcot,67,1,2024-02-26T16:56:05.593Z,male_vraiment_flat_145.wav,0,False,906,53,m,1,0.071043,98.212837
rcot,67,1,2024-02-26T16:56:05.593Z,male_vraiment_flat_145.wav,0,False,906,53,m,2,0.142086,141.769894
rcot,67,1,2024-02-26T16:56:05.593Z,male_vraiment_flat_145.wav,0,False,906,53,m,3,0.213129,137.732142
rcot,67,1,2024-02-26T16:56:05.593Z,male_vraiment_flat_145.wav,0,False,906,53,m,4,0.284172,20.834317
rcot,67,1,2024-02-26T16:56:05.593Z,male_vraiment_flat_145.wav,0,False,906,53,m,5,0.355215,-134.972350
rcot,67,1,2024-02-26T16:56:05.593Z,male_vraiment_flat_145.wav,0,False,906,53,m,6,0.426259,-28.162434
rcot,67,1,2024-02-26T16:56:05.593Z,male_vraiment_flat_196.wav,1,True,906,53,m,0,0.000000,-42.342747
rcot,67,1,2024-02-26T16:56:05.593Z,male_vraiment_flat_196.wav,1,True,906,53,m,1,0.071043,-81.868734
rcot,67,1,2024-02-26T16:56:05.593Z,male_vraiment_flat_196.wav,1,True,906,53,m,2,0.142086,-18.906552
rcot,67,1,2024-02-26T16:56:05.593Z,male_vraiment_flat_196.wav,1,True,906,53,m,3,0.213129,-18.852092
rcot,67,1,2024-02-26T16:56:05.593Z,male_vraiment_flat_196.wav,1,True,906,53,m,4,0.284172,52.116670
rcot,67,1,2024-02-26T16:56:05.593Z,male_vraiment_flat_196.wav,1,True,906,53,m,5,0.355215,90.577409
rcot,67,1,2024-02-26T16:56:05.593Z,male_vraiment_flat_196.wav,1,True,906,53,m,6,0.426259,29.772760
rcot,68,1,2024-02-26T16:56:05.593Z,male_vraiment_flat_7.wav,0,True,689,53,m,0,0.000000,43.823319
rcot,68,1,2024-02-26T16:56:05.593Z,male_vraiment_flat_7.wav,0,True,689,53,m,1,0.071043,72.049148
rcot,68,1,2024-02-26T16:56:05.593Z,male_vraiment_flat_7.wav,0,True,689,53,m,2,0.142086,-136.415247
rcot,68,1,2024-02-26T16:56:05.593Z,male_vraiment_flat_7.wav,0,True,689,53,m,3,0.213129,44.015310
rcot,68,1,2024-02-26T16:56:05.593Z,male_vraiment_flat_7.wav,0,True,689,53,m,4,0.284172,7.208530
rcot,68,1,2024-02-26T16:56:05.593Z,male_vraiment_flat_7.wav,0,True,689,53,m,5,0.355215,18.587432
rcot,68,1,2024-02-26T16:56:05.593Z,male_vraiment_flat_7.wav,0,True,689,53,m,6,0.426259,60.126473
rcot,68,1,2024-02-26T16:56:05.593Z,male_vraiment_flat_40.wav,1,False,689,53,m,0,0.000000,14.191871
rcot,68,1,2024-02-26T16:56:05.593Z,male_vraiment_flat_40.wav,1,False,689,53,m,1,0.071043,-146.480257
rcot,68,1,2024-02-26T16:56:05.593Z,male_vraiment_flat_40.wav,1,False,689,53,m,2,0.142086,53.736102
rcot,68,1,2024-02-26T16:56:05.593Z,male_vraiment_flat_40.wav,1,False,689,53,m,3,0.213129,76.339598
rcot,68,1,2024-02-26T16:56:05.593Z,male_vraiment_flat_40.wav,1,False,689,53,m,4,0.284172,128.682971
rcot,68,1,2024-02-26T16:56:05.593Z,male_vraiment_flat_40.wav,1,False,689,53,m,5,0.355215,-84.474700
rcot,68,1,2024-02-26T16:56:05.593Z,male_vraiment_flat_40.wav,1,False,689,53,m,6,0.426259,41.341932
rcot,69,1,2024-02-26T16:56:05.593Z,male_vraiment_flat_120.wav,0,False,355,53,m,0,0.000000,20.081065
rcot,69,1,2024-02-26T16:56:05.593Z,male_vraiment_flat_120.wav,0,False,355,53,m,1,0.071043,100.844988
rcot,69,1,2024-02-26T16:56:05.593Z,male_vraiment_flat_120.wav,0,False,355,53,m,2,0.142086,-34.199178
rcot,69,1,2024-02-26T16:56:05.593Z,male_vraiment_flat_120.wav,0,False,355,53,m,3,0.213129,-3.979999
rcot,69,1,2024-02-26T16:56:05.593Z,male_vraiment_flat_120.wav,0,False,355,53,m,4,0.284172,-132.448085
rcot,69,1,2024-02-26T16:56:05.593Z,male_vraiment_flat_120.wav,0,False,355,53,m,5,0.355215,-95.704719
rcot,69,1,2024-02-26T16:56:05.593Z,male_vraiment_flat_120.wav,0,False,355,53,m,6,0.426259,-2.125632
rcot,69,1,2024-02-26T16:56:05.593Z,male_vraiment_flat_97.wav,1,True,355,53,m,0,0.000000,-82.753908
rcot,69,1,2024-02-26T16:56:05.593Z,male_vraiment_flat_97.wav,1,True,355,53,m,1,0.071043,-85.130238
rcot,69,1,2024-02-26T16:56:05.593Z,male_vraiment_flat_97.wav,1,True,355,53,m,2,0.142086,-72.001027
rcot,69,1,2024-02-26T16:56:05.593Z,male_vraiment_flat_97.wav,1,True,355,53,m,3,0.213129,-75.442204
rcot,69,1,2024-02-26T16:56:05.593Z,male_vraiment_flat_97.wav,1,True,355,53,m,4,0.284172,147.061792
rcot,69,1,2024-02-26T16:56:05.593Z,male_vraiment_flat_97.wav,1,True,355,53,m,5,0.355215,126.876511
rcot,69,1,2024-02-26T16:56:05.593Z,male_vraiment_flat_97.wav,1,True,355,53,m,6,0.426259,96.208887
rcot,70,1,2024-02-26T16:56:05.593Z,male_vraiment_flat_13.wav,0,True,690,53,m,0,0.000000,-66.984077
rcot,70,1,2024-02-26T16:56:05.593Z,male_vraiment_flat_13.wav,0,True,690,53,m,1,0.071043,5.429279
rcot,70,1,2024-02-26T16:56:05.593Z,male_vraiment_flat_13.wav,0,True,690,53,m,2,0.142086,12.572717
rcot,70,1,2024-02-26T16:56:05.593Z,male_vraiment_flat_13.wav,0,True,690,53,m,3,0.213129,-71.562953
rcot,70,1,2024-02-26T16:56:05.593Z,male_vraiment_flat_13.wav,0,True,690,53,m,4,0.284172,-107.999901
rcot,70,1,2024-02-26T16:56:05.593Z,male_vraiment_flat_13.wav,0,True,690,53,m,5,0.355215,86.606735
rcot,70,1,2024-02-26T16:56:05.593Z,male_vraiment_flat_13.wav,0,True,690,53,m,6,0.426259,-82.122177
rcot,70,1,2024-02-26T16:56:05.593Z,male_vraiment_flat_105.wav,1,False,690,53,m,0,0.000000,125.556012
rcot,70,1,2024-02-26T16:56:05.593Z,male_vraiment_flat_105.wav,1,False,690,53,m,1,0.071043,102.885047
rcot,70,1,2024-02-26T16:56:05.593Z,male_vraiment_flat_105.wav,1,False,690,53,m,2,0.142086,-23.318884
rcot,70,1,2024-02-26T16:56:05.593Z,male_vraiment_flat_105.wav,1,False,690,53,m,3,0.213129,96.270063
rcot,70,1,2024-02-26T16:56:05.593Z,male_vraiment_flat_105.wav,1,False,690,53,m,4,0.284172,-32.661499
rcot,70,1,2024-02-26T16:56:05.593Z,male_vraiment_flat_105.wav,1,False,690,53,m,5,0.355215,-7.829717
rcot,70,1,2024-02-26T16:56:05.593Z,male_vraiment_flat_105.wav,1,False,690,53,m,6,0.426259,-13.047753
rcot,71,1,2024-02-26T16:56:05.593Z,male_vraiment_flat_170.wav,0,False,1269,53,m,0,0.000000,88.489327
rcot,71,1,2024-02-26T16:56:05.593Z,male_vraiment_flat_170.wav,0,False,1269,53,m,1,0.071043,-76.759591
rcot,71,1,2024-02-26T16:56:05.593Z,male_vraiment_flat_170.wav,0,False,1269,53,m,2,0.142086,131.535458
