subj,trial,block,date,stim,stim_order,response,rt,age,sex,param_index,segment_time,pitch
26091964,0,0,2024-02-21T08:14:41.566Z,male_vraiment_flat_10.wav,0,False,5370,59,M,0,0.000000,-59.283835
26091964,0,0,2024-02-21T08:14:41.566Z,male_vraiment_flat_10.wav,0,False,5370,59,M,1,0.071043,33.418752
26091964,0,0,2024-02-21T08:14:41.566Z,male_vraiment_flat_10.wav,0,False,5370,59,M,2,0.142086,-98.686452
26091964,0,0,2024-02-21T08:14:41.566Z,male_vraiment_flat_10.wav,0,False,5370,59,M,3,0.213129,137.870403
26091964,0,0,2024-02-21T08:14:41.566Z,male_vraiment_flat_10.wav,0,False,5370,59,M,4,0.284172,-113.384751
26091964,0,0,2024-02-21T08:14:41.566Z,male_vraiment_flat_10.wav,0,False,5370,59,M,5,0.355215,-122.497954
26091964,0,0,2024-02-21T08:14:41.566Z,male_vraiment_flat_10.wav,0,False,5370,59,M,6,0.426259,-121.154526
26091964,0,0,2024-02-21T08:14:41.566Z,male_vraiment_flat_170.wav,1,True,5370,59,M,0,0.000000,88.489327
26091964,0,0,2024-02-21T08:14:41.566Z,male_vraiment_flat_170.wav,1,True,5370,59,M,1,0.071043,-76.759591
26091964,0,0,2024-02-21T08:14:41.566Z,male_vraiment_flat_170.wav,1,True,5370,59,M,2,0.142086,131.535458
26091964,0,0,2024-02-21T08:14:41.566Z,male_vraiment_flat_170.wav,1,True,5370,59,M,3,0.213129,-66.304272
26091964,0,0,2024-02-21T08:14:41.566Z,male_vraiment_flat_170.wav,1,True,5370,59,M,4,0.284172,82.842237
26091964,0,0,2024-02-21T08:14:41.566Z,male_vraiment_flat_170.wav,1,True,5370,59,M,5,0.355215,39.682087
26091964,0,0,2024-02-21T08:14:41.566Z,male_vraiment_flat_170.wav,1,True,5370,59,M,6,0.426259,-39.313076
26091964,1,0,2024-02-21T08:14:41.566Z,male_vraiment_flat_187.wav,0,False,3197,59,M,0,0.000000,-30.403680
26091964,1,0,2024-02-21T08:14:41.566Z,male_vraiment_flat_187.wav,0,False,3197,59,M,1,0.071043,-60.531290
26091964,1,0,2024-02-21T08:14:41.566Z,male_vraiment_flat_187.wav,0,False,3197,59,M,2,0.142086,-84.335778
26091964,1,0,2024-02-21T08:14:41.566Z,male_vraiment_flat_187.wav,0,False,3197,59,M,3,0.213129,-15.670285
26091964,1,0,2024-02-21T08:14:41.566Z,male_vraiment_flat_187.wav,0,False,3197,59,M,4,0.284172,-56.852158
26091964,1,0,2024-02-21T08:14:41.566Z,male_vraiment_flat_187.wav,0,False,3197,59,M,5,0.355215,50.399162
26091964,1,0,2024-02-21T08:14:41.566Z,male_vraiment_flat_187.wav,0,False,3197,59,M,6,0.426259,83.384475
26091964,1,0,2024-02-21T08:14:41.566Z,male_vraiment_flat_111.wav,1,True,3197,59,M,0,0.000000,-76.898484
26091964,1,0,2024-02-21T08:14:41.566Z,male_vraiment_flat_111.wav,1,True,3197,59,M,1,0.071043,128.576704
26091964,1,0,2024-02-21T08:14:41.566Z,male_vraiment_flat_111.wav,1,True,3197,59,M,2,0.142086,84.475821
26091964,1,0,2024-02-21T08:14:41.566Z,male_vraiment_flat_111.wav,1,True,3197,59,M,3,0.213129,13.962019
26091964,1,0,2024-02-21T08:14:41.566Z,male_vraiment_flat_111.wav,1,True,3197,59,M,4,0.284172,80.950376
26091964,1,0,2024-02-21T08:14:41.566Z,male_vraiment_flat_111.wav,1,True,3197,59,M,5,0.355215,105.627204
26091964,1,0,2024-02-21T08:14:41.566Z,male_vraiment_flat_111.wav,1,True,3197,59,M,6,0.426259,86.259873
26091964,2,0,2024-02-21T08:14:41.566Z,male_vraiment_flat_25.wav,0,False,1663,59,M,0,0.000000,-129.422108
26091964,2,0,2024-02-21T08:14:41.566Z,male_vraiment_flat_25.wav,0,False,1663,59,M,1,0.071043,-12.331663
26091964,2,0,2024-02-21T08:14:41.566Z,male_vraiment_flat_25.wav,0,False,1663,59,M,2,0.142086,-97.065740
26091964,2,0,2024-02-21T08:14:41.566Z,male_vraiment_flat_25.wav,0,False,1663,59,M,3,0.213129,-6.253122
26091964,2,0,2024-02-21T08:14:41.566Z,male_vraiment_flat_25.wav,0,False,1663,59,M,4,0.284172,31.933743
26091964,2,0,2024-02-21T08:14:41.566Z,male_vraiment_flat_25.wav,0,False,1663,59,M,5,0.355215,-58.415946
26091964,2,0,2024-02-21T08:14:41.566Z,male_vraiment_flat_25.wav,0,False,1663,59,M,6,0.426259,117.143598
26091964,2,0,2024-02-21T08:14:41.566Z,male_vraiment_flat_131.wav,1,True,1663,59,M,0,0.000000,107.175705
26091964,2,0,2024-02-21T08:14:41.566Z,male_vraiment_flat_131.wav,1,True,1663,59,M,1,0.071043,81.997533
26091964,2,0,2024-02-21T08:14:41.566Z,male_vraiment_flat_131.wav,1,True,1663,59,M,2,0.142086,53.236564
26091964,2,0,2024-02-21T08:14:41.566Z,male_vraiment_flat_131.wav,1,True,1663,59,M,3,0.213129,108.962563
26091964,2,0,2024-02-21T08:14:41.566Z,male_vraiment_flat_131.wav,1,True,1663,59,M,4,0.284172,-22.910156
26091964,2,0,2024-02-21T08:14:41.566Z,male_vraiment_flat_131.wav,1,True,1663,59,M,5,0.355215,133.743101
26091964,2,0,2024-02-21T08:14:41.566Z,male_vraiment_flat_131.wav,1,True,1663,59,M,6,0.426259,98.652547
26091964,3,0,2024-02-21T08:14:41.566Z,male_vraiment_flat_81.wav,0,False,3654,59,M,0,0.000000,35.884214
26091964,3,0,2024-02-21T08:14:41.566Z,male_vraiment_flat_81.wav,0,False,3654,59,M,1,0.071043,19.404831
26091964,3,0,2024-02-21T08:14:41.566Z,male_vraiment_flat_81.wav,0,False,3654,59,M,2,0.142086,121.693264
26091964,3,0,2024-02-21T08:14:41.566Z,male_vraiment_flat_81.wav,0,False,3654,59,M,3,0.213129,29.127429
26091964,3,0,2024-02-21T08:14:41.566Z,male_vraiment_flat_81.wav,0,False,3654,59,M,4,0.284172,71.322417
26091964,3,0,2024-02-21T08:14:41.566Z,male_vraiment_flat_81.wav,0,False,3654,59,M,5,0.355215,138.687922
26091964,3,0,2024-02-21T08:14:41.566Z,male_vraiment_flat_81.wav,0,False,3654,59,M,6,0.426259,110.537915
26091964,3,0,2024-02-21T08:14:41.566Z,male_vraiment_flat_15.wav,1,True,3654,59,M,0,0.000000,-99.515509
26091964,3,0,2024-02-21T08:14:41.566Z,male_vraiment_flat_15.wav,1,True,3654,59,M,1,0.071043,-34.266668
26091964,3,0,2024-02-21T08:14:41.566Z,male_vraiment_flat_15.wav,1,True,3654,59,M,2,0.142086,14.847828
26091964,3,0,2024-02-21T08:14:41.566Z,male_vraiment_flat_15.wav,1,True,3654,59,M,3,0.213129,69.933849
26091964,3,0,2024-02-21T08:14:41.566Z,male_vraiment_flat_15.wav,1,True,3654,59,M,4,0.284172,112.308778
26091964,3,0,2024-02-21T08:14:41.566Z,male_vraiment_flat_15.wav,1,True,3654,59,M,5,0.355215,84.391608
26091964,3,0,2024-02-21T08:14:41.566Z,male_vraiment_flat_15.wav,1,True,3654,59,M,6,0.426259,-74.687150
26091964,4,0,2024-02-21T08:14:41.566Z,male_vraiment_flat_52.wav,0,False,4596,59,M,0,0.000000,-133.801400
26091964,4,0,2024-02-21T08:14:41.566Z,male_vraiment_flat_52.wav,0,False,4596,59,M,1,0.071043,34.189717
26091964,4,0,2024-02-21T08:14:41.566Z,male_vraiment_flat_52.wav,0,False,4596,59,M,2,0.142086,-145.714669
26091964,4,0,2024-02-21T08:14:41.566Z,male_vraiment_flat_52.wav,0,False,4596,59,M,3,0.213129,1.717896
26091964,4,0,2024-02-21T08:14:41.566Z,male_vraiment_flat_52.wav,0,False,4596,59,M,4,0.284172,99.036025
26091964,4,0,2024-02-21T08:14:41.566Z,male_vraiment_flat_52.wav,0,False,4596,59,M,5,0.355215,56.473042
26091964,4,0,2024-02-21T08:14:41.566Z,male_vraiment_flat_52.wav,0,False,4596,59,M,6,0.426259,113.578937
26091964,4,0,2024-02-21T08:14:41.566Z,male_vraiment_flat_171.wav,1,True,4596,59,M,0,0.000000,-132.910898
26091964,4,0,2024-02-21T08:14:41.566Z,male_vraiment_flat_171.wav,1,True,4596,59,M,1,0.071043,-40.348113
26091964,4,0,2024-02-21T08:14:41.566Z,male_vraiment_flat_171.wav,1,True,4596,59,M,2,0.142086,-144.469254
26091964,4,0,2024-02-21T08:14:41.566Z,male_vraiment_flat_171.wav,1,True,4596,59,M,3,0.213129,-148.365603
26091964,4,0,2024-02-21T08:14:41.566Z,male_vraiment_flat_171.wav,1,True,4596,59,M,4,0.284172,29.209812
26091964,4,0,2024-02-21T08:14:41.566Z,male_vraiment_flat_171.wav,1,True,4596,59,M,5,0.355215,-68.789467
26091964,4,0,2024-02-21T08:14:41.566Z,male_vraiment_flat_171.wav,1,True,4596,59,M,6,0.426259,116.539457
26091964,5,0,2024-02-21T08:14:41.566Z,male_vraiment_flat_77.wav,0,True,1766,59,M,0,0.000000,-123.489900
26091964,5,0,2024-02-21T08:14:41.566Z,male_vraiment_flat_77.wav,0,True,1766,59,M,1,0.071043,8.804262
26091964,5,0,2024-02-21T08:14:41.566Z,male_vraiment_flat_77.wav,0,True,1766,59,M,2,0.142086,-15.205517
26091964,5,0,2024-02-21T08:14:41.566Z,male_vraiment_flat_77.wav,0,True,1766,59,M,3,0.213129,7.550940
26091964,5,0,2024-02-21T08:14:41.566Z,male_vraiment_flat_77.wav,0,True,1766,59,M,4,0.284172,97.551926
26091964,5,0,2024-02-21T08:14:41.566Z,male_vraiment_flat_77.wav,0,True,1766,59,M,5,0.355215,56.352460
26091964,5,0,2024-02-21T08:14:41.566Z,male_vraiment_flat_77.wav,0,True,1766,59,M,6,0.426259,-146.779345
26091964,5,0,2024-02-21T08:14:41.566Z,male_vraiment_flat_177.wav,1,False,1766,59,M,0,0.000000,16.306046
26091964,5,0,2024-02-21T08:14:41.566Z,male_vraiment_flat_177.wav,1,False,1766,59,M,1,0.071043,49.193464
26091964,5,0,2024-02-21T08:14:41.566Z,male_vraiment_flat_177.wav,1,False,1766,59,M,2,0.142086,-57.450827
26091964,5,0,2024-02-21T08:14:41.566Z,male_vraiment_flat_177.wav,1,False,1766,59,M,3,0.213129,-71.200742
26091964,5,0,2024-02-21T08:14:41.566Z,male_vraiment_flat_177.wav,1,False,1766,59,M,4,0.284172,75.759547
26091964,5,0,2024-02-21T08:14:41.566Z,male_vraiment_flat_177.wav,1,False,1766,59,M,5,0.355215,-147.097868
26091964,5,0,2024-02-21T08:14:41.566Z,male_vraiment_flat_177.wav,1,False,1766,59,M,6,0.426259,-23.614561
26091964,6,0,2024-02-21T08:14:41.566Z,male_vraiment_flat_129.wav,0,True,1420,59,M,0,0.000000,121.236122
26091964,6,0,2024-02-21T08:14:41.566Z,male_vraiment_flat_129.wav,0,True,1420,59,M,1,0.071043,8.396736
26091964,6,0,2024-02-21T08:14:41.566Z,male_vraiment_flat_129.wav,0,True,1420,59,M,2,0.142086,-17.691364
26091964,6,0,2024-02-21T08:14:41.566Z,male_vraiment_flat_129.wav,0,True,1420,59,M,3,0.213129,73.711335
26091964,6,0,2024-02-21T08:14:41.566Z,male_vraiment_flat_129.wav,0,True,1420,59,M,4,0.284172,-117.430618
26091964,6,0,2024-02-21T08:14:41.566Z,male_vraiment_flat_129.wav,0,True,1420,59,M,5,0.355215,-12.936057
26091964,6,0,2024-02-21T08:14:41.566Z,male_vraiment_flat_129.wav,0,True,1420,59,M,6,0.426259,-63.494285
26091964,6,0,2024-02-21T08:14:41.566Z,male_vraiment_flat_67.wav,1,False,1420,59,M,0,0.000000,3.293259
26091964,6,0,2024-02-21T08:14:41.566Z,male_vraiment_flat_67.wav,1,False,1420,59,M,1,0.071043,-46.547477
26091964,6,0,2024-02-21T08:14:41.566Z,male_vraiment_flat_67.wav,1,False,1420,59,M,2,0.142086,54.624069
26091964,6,0,2024-02-21T08:14:41.566Z,male_vraiment_flat_67.wav,1,False,1420,59,M,3,0.213129,-46.025939
26091964,6,0,2024-02-21T08:14:41.566Z,male_vraiment_flat_67.wav,1,False,1420,59,M,4,0.284172,70.704507
26091964,6,0,2024-02-21T08:14:41.566Z,male_vraiment_flat_67.wav,1,False,1420,59,M,5,0.355215,-47.199237
26091964,6,0,2024-02-21T08:14:41.566Z,male_vraiment_flat_67.wav,1,False,1420,59,M,6,0.426259,147.575842
26091964,7,0,2024-02-21T08:14:41.566Z,male_vraiment_flat_39.wav,0,True,1819,59,M,0,0.000000,111.266402
26091964,7,0,2024-02-21T08:14:41.566Z,male_vraiment_flat_39.wav,0,True,1819,59,M,1,0.071043,99.799676
26091964,7,0,2024-02-21T08:14:41.566Z,male_vraiment_flat_39.wav,0,True,1819,59,M,2,0.142086,45.272629
26091964,7,0,2024-02-21T08:14:41.566Z,male_vraiment_flat_39.wav,0,True,1819,59,M,3,0.213129,-145.406877
26091964,7,0,2024-02-21T08:14:41.566Z,male_vraiment_flat_39.wav,0,True,1819,59,M,4,0.284172,46.363124
26091964,7,0,2024-02-21T08:14:41.566Z,male_vraiment_flat_39.wav,0,True,1819,59,M,5,0.355215,90.908213
26091964,7,0,2024-02-21T08:14:41.566Z,male_vraiment_flat_39.wav,0,True,1819,59,M,6,0.426259,-13.802222
26091964,7,0,2024-02-21T08:14:41.566Z,male_vraiment_flat_3.wav,1,False,1819,59,M,0,0.000000,139.821339
26091964,7,0,2024-02-21T08:14:41.566Z,male_vraiment_flat_3.wav,1,False,1819,59,M,1,0.071043,-90.088416
26091964,7,0,2024-02-21T08:14:41.566Z,male_vraiment_flat_3.wav,1,False,1819,59,M,2,0.142086,-144.376143
26091964,7,0,2024-02-21T08:14:41.566Z,male_vraiment_flat_3.wav,1,False,1819,59,M,3,0.213129,-83.117215
26091964,7,0,2024-02-21T08:14:41.566Z,male_vraiment_flat_3.wav,1,False,1819,59,M,4,0.284172,-15.266959
26091964,7,0,2024-02-21T08:14:41.566Z,male_vraiment_flat_3.wav,1,False,1819,59,M,5,0.355215,-78.645111
26091964,7,0,2024-02-21T08:14:41.566Z,male_vraiment_flat_3.wav,1,False,1819,59,M,6,0.426259,18.566710
26091964,8,0,2024-02-21T08:14:41.566Z,male_vraiment_flat_65.wav,0,True,2484,59,M,0,0.000000,104.278510
26091964,8,0,2024-02-21T08:14:41.566Z,male_vraiment_flat_65.wav,0,True,2484,59,M,1,0.071043,120.742750
26091964,8,0,2024-02-21T08:14:41.566Z,male_vraiment_flat_65.wav,0,True,2484,59,M,2,0.142086,116.963717
26091964,8,0,2024-02-21T08:14:41.566Z,male_vraiment_flat_65.wav,0,True,2484,59,M,3,0.213129,-30.167489
26091964,8,0,2024-02-21T08:14:41.566Z,male_vraiment_flat_65.wav,0,True,2484,59,M,4,0.284172,58.482575
26091964,8,0,2024-02-21T08:14:41.566Z,male_vraiment_flat_65.wav,0,True,2484,59,M,5,0.355215,-35.240720
26091964,8,0,2024-02-21T08:14:41.566Z,male_vraiment_flat_65.wav,0,True,2484,59,M,6,0.426259,-49.851341
26091964,8,0,2024-02-21T08:14:41.566Z,male_vraiment_flat_60.wav,1,False,2484,59,M,0,0.000000,-89.296237
26091964,8,0,2024-02-21T08:14:41.566Z,male_vraiment_flat_60.wav,1,False,2484,59,M,1,0.071043,0.647875
26091964,8,0,2024-02-21T08:14:41.566Z,male_vraiment_flat_60.wav,1,False,2484,59,M,2,0.142086,-124.228045
26091964,8,0,2024-02-21T08:14:41.566Z,male_vraiment_flat_60.wav,1,False,2484,59,M,3,0.213129,-147.365900
26091964,8,0,2024-02-21T08:14:41.566Z,male_vraiment_flat_60.wav,1,False,2484,59,M,4,0.284172,-7.428030
26091964,8,0,2024-02-21T08:14:41.566Z,male_vraiment_flat_60.wav,1,False,2484,59,M,5,0.355215,-42.828577
26091964,8,0,2024-02-21T08:14:41.566Z,male_vraiment_flat_60.wav,1,False,2484,59,M,6,0.426259,-114.882786
26091964,9,0,2024-02-21T08:14:41.566Z,male_vraiment_flat_6.wav,0,True,392,59,M,0,0.000000,99.637695
26091964,9,0,2024-02-21T08:14:41.566Z,male_vraiment_flat_6.wav,0,True,392,59,M,1,0.071043,129.019395
26091964,9,0,2024-02-21T08:14:41.566Z,male_vraiment_flat_6.wav,0,True,392,59,M,2,0.142086,85.352544
26091964,9,0,2024-02-21T08:14:41.566Z,male_vraiment_flat_6.wav,0,True,392,59,M,3,0.213129,122.275637
26091964,9,0,2024-02-21T08:14:41.566Z,male_vraiment_flat_6.wav,0,True,392,59,M,4,0.284172,45.838224
26091964,9,0,2024-02-21T08:14:41.566Z,male_vraiment_flat_6.wav,0,True,392,59,M,5,0.355215,149.126562
26091964,9,0,2024-02-21T08:14:41.566Z,male_vraiment_flat_6.wav,0,True,392,59,M,6,0.426259,9.632372
26091964,9,0,2024-02-21T08:14:41.566Z,male_vraiment_flat_188.wav,1,False,392,59,M,0,0.000000,-11.484944
26091964,9,0,2024-02-21T08:14:41.566Z,male_vraiment_flat_188.wav,1,False,392,59,M,1,0.071043,-70.368872
26091964,9,0,2024-02-21T08:14:41.566Z,male_vraiment_flat_188.wav,1,False,392,59,M,2,0.142086,-35.616146
26091964,9,0,2024-02-21T08:14:41.566Z,male_vraiment_flat_188.wav,1,False,392,59,M,3,0.213129,0.109627
26091964,9,0,2024-02-21T08:14:41.566Z,male_vraiment_flat_188.wav,1,False,392,59,M,4,0.284172,2.553157
26091964,9,0,2024-02-21T08:14:41.566Z,male_vraiment_flat_188.wav,1,False,392,59,M,5,0.355215,-21.302793
26091964,9,0,2024-02-21T08:14:41.566Z,male_vraiment_flat_188.wav,1,False,392,59,M,6,0.426259,-116.307336
26091964,10,0,2024-02-21T08:14:41.566Z,male_vraiment_flat_40.wav,0,True,13102,59,M,0,0.000000,14.191871
26091964,10,0,2024-02-21T08:14:41.566Z,male_vraiment_flat_40.wav,0,True,13102,59,M,1,0.071043,-146.480257
26091964,10,0,2024-02-21T08:14:41.566Z,male_vraiment_flat_40.wav,0,True,13102,59,M,2,0.142086,53.736102
26091964,10,0,2024-02-21T08:14:41.566Z,male_vraiment_flat_40.wav,0,True,13102,59,M,3,0.213129,76.339598
26091964,10,0,2024-02-21T08:14:41.566Z,male_vraiment_flat_40.wav,0,True,13102,59,M,4,0.284172,128.682971
26091964,10,0,2024-02-21T08:14:41.566Z,male_vraiment_flat_40.wav,0,True,13102,59,M,5,0.355215,-84.474700
26091964,10,0,2024-02-21T08:14:41.566Z,male_vraiment_flat_40.wav,0,True,13102,59,M,6,0.426259,41.341932
26091964,10,0,2024-02-21T08:14:41.566Z,male_vraiment_flat_182.wav,1,False,13102,59,M,0,0.000000,20.855134
26091964,10,0,2024-02-21T08:14:41.566Z,male_vraiment_flat_182.wav,1,False,13102,59,M,1,0.071043,131.000404
26091964,10,0,2024-02-21T08:14:41.566Z,male_vraiment_flat_182.wav,1,False,13102,59,M,2,0.142086,-24.691908
26091964,10,0,2024-02-21T08:14:41.566Z,male_vraiment_flat_182.wav,1,False,13102,59,M,3,0.213129,128.422786
26091964,10,0,2024-02-21T08:14:41.566Z,male_vraiment_flat_182.wav,1,False,13102,59,M,4,0.284172,-128.848387
26091964,10,0,2024-02-21T08:14:41.566Z,male_vraiment_flat_182.wav,1,False,13102,59,M,5,0.355215,118.792618
26091964,10,0,2024-02-21T08:14:41.566Z,male_vraiment_flat_182.wav,1,False,13102,59,M,6,0.426259,-92.475253
26091964,11,0,2024-02-21T08:14:41.566Z,male_vraiment_flat_147.wav,0,True,710,59,M,0,0.000000,-109.572708
26091964,11,0,2024-02-21T08:14:41.566Z,male_vraiment_flat_147.wav,0,True,710,59,M,1,0.071043,-50.943910
26091964,11,0,2024-02-21T08:14:41.566Z,male_vraiment_flat_147.wav,0,True,710,59,M,2,0.142086,145.950821
26091964,11,0,2024-02-21T08:14:41.566Z,male_vraiment_flat_147.wav,0,True,710,59,M,3,0.213129,141.813801
26091964,11,0,2024-02-21T08:14:41.566Z,male_vraiment_flat_147.wav,0,True,710,59,M,4,0.284172,53.597843
26091964,11,0,2024-02-21T08:14:41.566Z,male_vraiment_flat_147.wav,0,True,710,59,M,5,0.355215,-21.310214
26091964,11,0,2024-02-21T08:14:41.566Z,male_vraiment_flat_147.wav,0,True,710,59,M,6,0.426259,-94.477021
26091964,11,0,2024-02-21T08:14:41.566Z,male_vraiment_flat_164.wav,1,False,710,59,M,0,0.000000,-99.029475
26091964,11,0,2024-02-21T08:14:41.566Z,male_vraiment_flat_164.wav,1,False,710,59,M,1,0.071043,-83.219544
26091964,11,0,2024-02-21T08:14:41.566Z,male_vraiment_flat_164.wav,1,False,710,59,M,2,0.142086,-76.160804
26091964,11,0,2024-02-21T08:14:41.566Z,male_vraiment_flat_164.wav,1,False,710,59,M,3,0.213129,-60.412119
26091964,11,0,2024-02-21T08:14:41.566Z,male_vraiment_flat_164.wav,1,False,710,59,M,4,0.284172,-135.438027
26091964,11,0,2024-02-21T08:14:41.566Z,male_vraiment_flat_164.wav,1,False,710,59,M,5,0.355215,-30.546522
26091964,11,0,2024-02-21T08:14:41.566Z,male_vraiment_flat_164.wav,1,False,710,59,M,6,0.426259,-142.367635
26091964,12,0,2024-02-21T08:14:41.566Z,male_vraiment_flat_72.wav,0,False,5342,59,M,0,0.000000,-108.464526
26091964,12,0,2024-02-21T08:14:41.566Z,male_vraiment_flat_72.wav,0,False,5342,59,M,1,0.071043,78.835335
26091964,12,0,2024-02-21T08:14:41.566Z,male_vraiment_flat_72.wav,0,False,5342,59,M,2,0.142086,134.553834
26091964,12,0,2024-02-21T08:14:41.566Z,male_vraiment_flat_72.wav,0,False,5342,59,M,3,0.213129,5.396534
26091964,12,0,2024-02-21T08:14:41.566Z,male_vraiment_flat_72.wav,0,False,5342,59,M,4,0.284172,7.798595
26091964,12,0,2024-02-21T08:14:41.566Z,male_vraiment_flat_72.wav,0,False,5342,59,M,5,0.355215,65.510626
26091964,12,0,2024-02-21T08:14:41.566Z,male_vraiment_flat_72.wav,0,False,5342,59,M,6,0.426259,-103.798030
26091964,12,0,2024-02-21T08:14:41.566Z,male_vraiment_flat_12.wav,1,True,5342,59,M,0,0.000000,-11.936919
26091964,12,0,2024-02-21T08:14:41.566Z,male_vraiment_flat_12.wav,1,True,5342,59,M,1,0.071043,-51.249998
26091964,12,0,2024-02-21T08:14:41.566Z,male_vraiment_flat_12.wav,1,True,5342,59,M,2,0.142086,42.322915
26091964,12,0,2024-02-21T08:14:41.566Z,male_vraiment_flat_12.wav,1,True,5342,59,M,3,0.213129,-19.839410
26091964,12,0,2024-02-21T08:14:41.566Z,male_vraiment_flat_12.wav,1,True,5342,59,M,4,0.284172,46.127041
26091964,12,0,2024-02-21T08:14:41.566Z,male_vraiment_flat_12.wav,1,True,5342,59,M,5,0.355215,34.596861
26091964,12,0,2024-02-21T08:14:41.566Z,male_vraiment_flat_12.wav,1,True,5342,59,M,6,0.426259,143.594573
26091964,13,0,2024-02-21T08:14:41.566Z,male_vraiment_flat_113.wav,0,False,877,59,M,0,0.000000,52.176539
26091964,13,0,2024-02-21T08:14:41.566Z,male_vraiment_flat_113.wav,0,False,877,59,M,1,0.071043,52.904766
26091964,13,0,2024-02-21T08:14:41.566Z,male_vraiment_flat_113.wav,0,False,877,59,M,2,0.142086,-138.473207
26091964,13,0,2024-02-21T08:14:41.566Z,male_vraiment_flat_113.wav,0,False,877,59,M,3,0.213129,-65.217652
26091964,13,0,2024-02-21T08:14:41.566Z,male_vraiment_flat_113.wav,0,False,877,59,M,4,0.284172,3.928053
26091964,13,0,2024-02-21T08:14:41.566Z,male_vraiment_flat_113.wav,0,False,877,59,M,5,0.355215,69.229623
26091964,13,0,2024-02-21T08:14:41.566Z,male_vraiment_flat_113.wav,0,False,877,59,M,6,0.426259,-85.157528
26091964,13,0,2024-02-21T08:14:41.566Z,male_vraiment_flat_184.wav,1,True,877,59,M,0,0.000000,86.245131
26091964,13,0,2024-02-21T08:14:41.566Z,male_vraiment_flat_184.wav,1,True,877,59,M,1,0.071043,106.604050
26091964,13,0,2024-02-21T08:14:41.566Z,male_vraiment_flat_184.wav,1,True,877,59,M,2,0.142086,-48.425154
26091964,13,0,2024-02-21T08:14:41.566Z,male_vraiment_flat_184.wav,1,True,877,59,M,3,0.213129,48.927001
26091964,13,0,2024-02-21T08:14:41.566Z,male_vraiment_flat_184.wav,1,True,877,59,M,4,0.284172,-82.972934
26091964,13,0,2024-02-21T08:14:41.566Z,male_vraiment_flat_184.wav,1,True,877,59,M,5,0.355215,73.552976
26091964,13,0,2024-02-21T08:14:41.566Z,male_vraiment_flat_184.wav,1,True,877,59,M,6,0.426259,-131.359115
26091964,14,0,2024-02-21T08:14:41.566Z,male_vraiment_flat_172.wav,0,True,2000,59,M,0,0.000000,-63.308139
26091964,14,0,2024-02-21T08:14:41.566Z,male_vraiment_flat_172.wav,0,True,2000,59,M,1,0.071043,-111.693367
26091964,14,0,2024-02-21T08:14:41.566Z,male_vraiment_flat_172.wav,0,True,2000,59,M,2,0.142086,-61.444624
26091964,14,0,2024-02-21T08:14:41.566Z,male_vraiment_flat_172.wav,0,True,2000,59,M,3,0.213129,137.201589
26091964,14,0,2024-02-21T08:14:41.566Z,male_vraiment_flat_172.wav,0,True,2000,59,M,4,0.284172,-132.973462
26091964,14,0,2024-02-21T08:14:41.566Z,male_vraiment_flat_172.wav,0,True,2000,59,M,5,0.355215,-126.405577
26091964,14,0,2024-02-21T08:14:41.566Z,male_vraiment_flat_172.wav,0,True,2000,59,M,6,0.426259,-119.840486
26091964,14,0,2024-02-21T08:14:41.566Z,male_vraiment_flat_154.wav,1,False,2000,59,M,0,0.000000,-56.341735
26091964,14,0,2024-02-21T08:14:41.566Z,male_vraiment_flat_154.wav,1,False,2000,59,M,1,0.071043,15.133004
26091964,14,0,2024-02-21T08:14:41.566Z,male_vraiment_flat_154.wav,1,False,2000,59,M,2,0.142086,67.588138
26091964,14,0,2024-02-21T08:14:41.566Z,male_vraiment_flat_154.wav,1,False,2000,59,M,3,0.213129,4.827765
26091964,14,0,2024-02-21T08:14:41.566Z,male_vraiment_flat_154.wav,1,False,2000,59,M,4,0.284172,-119.124529
26091964,14,0,2024-02-21T08:14:41.566Z,male_vraiment_flat_154.wav,1,False,2000,59,M,5,0.355215,137.124750
26091964,14,0,2024-02-21T08:14:41.566Z,male_vraiment_flat_154.wav,1,False,2000,59,M,6,0.426259,-61.627299
26091964,15,0,2024-02-21T08:14:41.566Z,male_vraiment_flat_53.wav,0,False,2348,59,M,0,0.000000,12.794375
26091964,15,0,2024-02-21T08:14:41.566Z,male_vraiment_flat_53.wav,0,False,2348,59,M,1,0.071043,72.488609
26091964,15,0,2024-02-21T08:14:41.566Z,male_vraiment_flat_53.wav,0,False,2348,59,M,2,0.142086,82.753367
26091964,15,0,2024-02-21T08:14:41.566Z,male_vraiment_flat_53.wav,0,False,2348,59,M,3,0.213129,-11.724600
26091964,15,0,2024-02-21T08:14:41.566Z,male_vraiment_flat_53.wav,0,False,2348,59,M,4,0.284172,8.499299
26091964,15,0,2024-02-21T08:14:41.566Z,male_vraiment_flat_53.wav,0,False,2348,59,M,5,0.355215,84.468722
26091964,15,0,2024-02-21T08:14:41.566Z,male_vraiment_flat_53.wav,0,False,2348,59,M,6,0.426259,-88.580062
26091964,15,0,2024-02-21T08:14:41.566Z,male_vraiment_flat_45.wav,1,True,2348,59,M,0,0.000000,-108.869549
26091964,15,0,2024-02-21T08:14:41.566Z,male_vraiment_flat_45.wav,1,True,2348,59,M,1,0.071043,-22.660114
26091964,15,0,2024-02-21T08:14:41.566Z,male_vraiment_flat_45.wav,1,True,2348,59,M,2,0.142086,-141.096375
26091964,15,0,2024-02-21T08:14:41.566Z,male_vraiment_flat_45.wav,1,True,2348,59,M,3,0.213129,-24.815065
26091964,15,0,2024-02-21T08:14:41.566Z,male_vraiment_flat_45.wav,1,True,2348,59,M,4,0.284172,102.804681
26091964,15,0,2024-02-21T08:14:41.566Z,male_vraiment_flat_45.wav,1,True,2348,59,M,5,0.355215,112.365201
26091964,15,0,2024-02-21T08:14:41.566Z,male_vraiment_flat_45.wav,1,True,2348,59,M,6,0.426259,95.196821
26091964,16,0,2024-02-21T08:14:41.566Z,male_vraiment_flat_35.wav,0,True,4347,59,M,0,0.000000,-80.907759
26091964,16,0,2024-02-21T08:14:41.566Z,male_vraiment_flat_35.wav,0,True,4347,59,M,1,0.071043,-44.446048
26091964,16,0,2024-02-21T08:14:41.566Z,male_vraiment_flat_35.wav,0,True,4347,59,M,2,0.142086,-51.579277
26091964,16,0,2024-02-21T08:14:41.566Z,male_vraiment_flat_35.wav,0,True,4347,59,M,3,0.213129,-66.764099
26091964,16,0,2024-02-21T08:14:41.566Z,male_vraiment_flat_35.wav,0,True,4347,59,M,4,0.284172,-35.478686
26091964,16,0,2024-02-21T08:14:41.566Z,male_vraiment_flat_35.wav,0,True,4347,59,M,5,0.355215,-86.823570
26091964,16,0,2024-02-21T08:14:41.566Z,male_vraiment_flat_35.wav,0,True,4347,59,M,6,0.426259,26.550026
26091964,16,0,2024-02-21T08:14:41.566Z,male_vraiment_flat_114.wav,1,False,4347,59,M,0,0.000000,-107.614700
26091964,16,0,2024-02-21T08:14:41.566Z,male_vraiment_flat_114.wav,1,False,4347,59,M,1,0.071043,-121.606705
26091964,16,0,2024-02-21T08:14:41.566Z,male_vraiment_flat_114.wav,1,False,4347,59,M,2,0.142086,26.820871
26091964,16,0,2024-02-21T08:14:41.566Z,male_vraiment_flat_114.wav,1,False,4347,59,M,3,0.213129,42.957584
26091964,16,0,2024-02-21T08:14:41.566Z,male_vraiment_flat_114.wav,1,False,4347,59,M,4,0.284172,-48.053802
26091964,16,0,2024-02-21T08:14:41.566Z,male_vraiment_flat_114.wav,1,False,4347,59,M,5,0.355215,-10.474627
26091964,16,0,2024-02-21T08:14:41.566Z,male_vraiment_flat_114.wav,1,False,4347,59,M,6,0.426259,-131.069216
26091964,17,0,2024-02-21T08:14:41.566Z,male_vraiment_flat_56.wav,0,True,7704,59,M,0,0.000000,30.953431
26091964,17,0,2024-02-21T08:14:41.566Z,male_vraiment_flat_56.wav,0,True,7704,59,M,1,0.071043,-50.543389
26091964,17,0,2024-02-21T08:14:41.566Z,male_vraiment_flat_56.wav,0,True,7704,59,M,2,0.142086,-40.325616
26091964,17,0,2024-02-21T08:14:41.566Z,male_vraiment_flat_56.wav,0,True,7704,59,M,3,0.213129,130.397773
26091964,17,0,2024-02-21T08:14:41.566Z,male_vraiment_flat_56.wav,0,True,7704,59,M,4,0.284172,-66.278306
26091964,17,0,2024-02-21T08:14:41.566Z,male_vraiment_flat_56.wav,0,True,7704,59,M,5,0.355215,127.583751
26091964,17,0,2024-02-21T08:14:41.566Z,male_vraiment_flat_56.wav,0,True,7704,59,M,6,0.426259,-120.769688
26091964,17,0,2024-02-21T08:14:41.566Z,male_vraiment_flat_116.wav,1,False,7704,59,M,0,0.000000,-80.686828
26091964,17,0,2024-02-21T08:14:41.566Z,male_vraiment_flat_116.wav,1,False,7704,59,M,1,0.071043,-31.189533
26091964,17,0,2024-02-21T08:14:41.566Z,male_vraiment_flat_116.wav,1,False,7704,59,M,2,0.142086,-144.914474
26091964,17,0,2024-02-21T08:14:41.566Z,male_vraiment_flat_116.wav,1,False,7704,59,M,3,0.213129,-49.653212
26091964,17,0,2024-02-21T08:14:41.566Z,male_vraiment_flat_116.wav,1,False,7704,59,M,4,0.284172,-94.646547
26091964,17,0,2024-02-21T08:14:41.566Z,male_vraiment_flat_116.wav,1,False,7704,59,M,5,0.355215,-38.055332
26091964,17,0,2024-02-21T08:14:41.566Z,male_vraiment_flat_116.wav,1,False,7704,59,M,6,0.426259,-90.510946
26091964,18,0,2024-02-21T08:14:41.566Z,male_vraiment_flat_31.wav,0,False,2860,59,M,0,0.000000,-118.123136
26091964,18,0,2024-02-21T08:14:41.566Z,male_vraiment_flat_31.wav,0,False,2860,59,M,1,0.071043,-54.324615
26091964,18,0,2024-02-21T08:14:41.566Z,male_vraiment_flat_31.wav,0,False,2860,59,M,2,0.142086,-56.463303
26091964,18,0,2024-02-21T08:14:41.566Z,male_vraiment_flat_31.wav,0,False,2860,59,M,3,0.213129,65.563679
26091964,18,0,2024-02-21T08:14:41.566Z,male_vraiment_flat_31.wav,0,False,2860,59,M,4,0.284172,91.438424
26091964,18,0,2024-02-21T08:14:41.566Z,male_vraiment_flat_31.wav,0,False,2860,59,M,5,0.355215,-2.661707
26091964,18,0,2024-02-21T08:14:41.566Z,male_vraiment_flat_31.wav,0,False,2860,59,M,6,0.426259,-48.318391
26091964,18,0,2024-02-21T08:14:41.566Z,male_vraiment_flat_58.wav,1,True,2860,59,M,0,0.000000,-52.909251
26091964,18,0,2024-02-21T08:14:41.566Z,male_vraiment_flat_58.wav,1,True,2860,59,M,1,0.071043,-4.560860
26091964,18,0,2024-02-21T08:14:41.566Z,male_vraiment_flat_58.wav,1,True,2860,59,M,2,0.142086,-106.285240
26091964,18,0,2024-02-21T08:14:41.566Z,male_vraiment_flat_58.wav,1,True,2860,59,M,3,0.213129,-64.474310
26091964,18,0,2024-02-21T08:14:41.566Z,male_vraiment_flat_58.wav,1,True,2860,59,M,4,0.284172,-121.964639
26091964,18,0,2024-02-21T08:14:41.566Z,male_vraiment_flat_58.wav,1,True,2860,59,M,5,0.355215,35.204504
26091964,18,0,2024-02-21T08:14:41.566Z,male_vraiment_flat_58.wav,1,True,2860,59,M,6,0.426259,-7.933790
26091964,19,0,2024-02-21T08:14:41.566Z,male_vraiment_flat_142.wav,0,False,966,59,M,0,0.000000,129.881009
26091964,19,0,2024-02-21T08:14:41.566Z,male_vraiment_flat_142.wav,0,False,966,59,M,1,0.071043,116.596688
26091964,19,0,2024-02-21T08:14:41.566Z,male_vraiment_flat_142.wav,0,False,966,59,M,2,0.142086,48.203333
26091964,19,0,2024-02-21T08:14:41.566Z,male_vraiment_flat_142.wav,0,False,966,59,M,3,0.213129,100.883154
26091964,19,0,2024-02-21T08:14:41.566Z,male_vraiment_flat_142.wav,0,False,966,59,M,4,0.284172,-39.625904
26091964,19,0,2024-02-21T08:14:41.566Z,male_vraiment_flat_142.wav,0,False,966,59,M,5,0.355215,-141.802649
26091964,19,0,2024-02-21T08:14:41.566Z,male_vraiment_flat_142.wav,0,False,966,59,M,6,0.426259,58.691582
26091964,19,0,2024-02-21T08:14:41.566Z,male_vraiment_flat_195.wav,1,True,966,59,M,0,0.000000,-54.423844
26091964,19,0,2024-02-21T08:14:41.566Z,male_vraiment_flat_195.wav,1,True,966,59,M,1,0.071043,81.067183
26091964,19,0,2024-02-21T08:14:41.566Z,male_vraiment_flat_195.wav,1,True,966,59,M,2,0.142086,-60.396049
26091964,19,0,2024-02-21T08:14:41.566Z,male_vraiment_flat_195.wav,1,True,966,59,M,3,0.213129,-65.685418
26091964,19,0,2024-02-21T08:14:41.566Z,male_vraiment_flat_195.wav,1,True,966,59,M,4,0.284172,141.607211
26091964,19,0,2024-02-21T08:14:41.566Z,male_vraiment_flat_195.wav,1,True,966,59,M,5,0.355215,37.879388
26091964,19,0,2024-02-21T08:14:41.566Z,male_vraiment_flat_195.wav,1,True,966,59,M,6,0.426259,-52.972183
26091964,20,0,2024-02-21T08:14:41.566Z,male_vraiment_flat_88.wav,0,False,659,59,M,0,0.000000,-104.432443
26091964,20,0,2024-02-21T08:14:41.566Z,male_vraiment_flat_88.wav,0,False,659,59,M,1,0.071043,71.901933
26091964,20,0,2024-02-21T08:14:41.566Z,male_vraiment_flat_88.wav,0,False,659,59,M,2,0.142086,62.017491
26091964,20,0,2024-02-21T08:14:41.566Z,male_vraiment_flat_88.wav,0,False,659,59,M,3,0.213129,-148.109936
26091964,20,0,2024-02-21T08:14:41.566Z,male_vraiment_flat_88.wav,0,False,659,59,M,4,0.284172,21.087169
26091964,20,0,2024-02-21T08:14:41.566Z,male_vraiment_flat_88.wav,0,False,659,59,M,5,0.355215,98.793360
26091964,20,0,2024-02-21T08:14:41.566Z,male_vraiment_flat_88.wav,0,False,659,59,M,6,0.426259,84.960800
26091964,20,0,2024-02-21T08:14:41.566Z,male_vraiment_flat_162.wav,1,True,659,59,M,0,0.000000,-28.080103
26091964,20,0,2024-02-21T08:14:41.566Z,male_vraiment_flat_162.wav,1,True,659,59,M,1,0.071043,-58.839442
26091964,20,0,2024-02-21T08:14:41.566Z,male_vraiment_flat_162.wav,1,True,659,59,M,2,0.142086,8.883261
26091964,20,0,2024-02-21T08:14:41.566Z,male_vraiment_flat_162.wav,1,True,659,59,M,3,0.213129,109.746189
26091964,20,0,2024-02-21T08:14:41.566Z,male_vraiment_flat_162.wav,1,True,659,59,M,4,0.284172,134.765505
26091964,20,0,2024-02-21T08:14:41.566Z,male_vraiment_flat_162.wav,1,True,659,59,M,5,0.355215,-8.935646
26091964,20,0,2024-02-21T08:14:41.566Z,male_vraiment_flat_162.wav,1,True,659,59,M,6,0.426259,114.162759
26091964,21,0,2024-02-21T08:14:41.566Z,male_vraiment_flat_143.wav,0,False,619,59,M,0,0.000000,-11.669164
26091964,21,0,2024-02-21T08:14:41.566Z,male_vraiment_flat_143.wav,0,False,619,59,M,1,0.071043,-18.385217
26091964,21,0,2024-02-21T08:14:41.566Z,male_vraiment_flat_143.wav,0,False,619,59,M,2,0.142086,88.645793
26091964,21,0,2024-02-21T08:14:41.566Z,male_vraiment_flat_143.wav,0,False,619,59,M,3,0.213129,-2.720338
26091964,21,0,2024-02-21T08:14:41.566Z,male_vraiment_flat_143.wav,0,False,619,59,M,4,0.284172,-37.224869
26091964,21,0,2024-02-21T08:14:41.566Z,male_vraiment_flat_143.wav,0,False,619,59,M,5,0.355215,-143.685714
26091964,21,0,2024-02-21T08:14:41.566Z,male_vraiment_flat_143.wav,0,False,619,59,M,6,0.426259,-125.491494
26091964,21,0,2024-02-21T08:14:41.566Z,male_vraiment_flat_194.wav,1,True,619,59,M,0,0.000000,104.124735
26091964,21,0,2024-02-21T08:14:41.566Z,male_vraiment_flat_194.wav,1,True,619,59,M,1,0.071043,-92.067392
26091964,21,0,2024-02-21T08:14:41.566Z,male_vraiment_flat_194.wav,1,True,619,59,M,2,0.142086,-108.808255
26091964,21,0,2024-02-21T08:14:41.566Z,male_vraiment_flat_194.wav,1,True,619,59,M,3,0.213129,99.267416
26091964,21,0,2024-02-21T08:14:41.566Z,male_vraiment_flat_194.wav,1,True,619,59,M,4,0.284172,-26.685302
26091964,21,0,2024-02-21T08:14:41.566Z,male_vraiment_flat_194.wav,1,True,619,59,M,5,0.355215,97.824367
26091964,21,0,2024-02-21T08:14:41.566Z,male_vraiment_flat_194.wav,1,True,619,59,M,6,0.426259,-69.402109
26091964,22,0,2024-02-21T08:14:41.566Z,male_vraiment_flat_24.wav,0,True,1241,59,M,0,0.000000,-144.276814
26091964,22,0,2024-02-21T08:14:41.566Z,male_vraiment_flat_24.wav,0,True,1241,59,M,1,0.071043,-59.436611
26091964,22,0,2024-02-21T08:14:41.566Z,male_vraiment_flat_24.wav,0,True,1241,59,M,2,0.142086,45.565590
26091964,22,0,2024-02-21T08:14:41.566Z,male_vraiment_flat_24.wav,0,True,1241,59,M,3,0.213129,19.626340
26091964,22,0,2024-02-21T08:14:41.566Z,male_vraiment_flat_24.wav,0,True,1241,59,M,4,0.284172,-127.586662
26091964,22,0,2024-02-21T08:14:41.566Z,male_vraiment_flat_24.wav,0,True,1241,59,M,5,0.355215,59.214853
26091964,22,0,2024-02-21T08:14:41.566Z,male_vraiment_flat_24.wav,0,True,1241,59,M,6,0.426259,-70.996219
26091964,22,0,2024-02-21T08:14:41.566Z,male_vraiment_flat_94.wav,1,False,1241,59,M,0,0.000000,-0.652128
26091964,22,0,2024-02-21T08:14:41.566Z,male_vraiment_flat_94.wav,1,False,1241,59,M,1,0.071043,97.860897
26091964,22,0,2024-02-21T08:14:41.566Z,male_vraiment_flat_94.wav,1,False,1241,59,M,2,0.142086,48.932214
26091964,22,0,2024-02-21T08:14:41.566Z,male_vraiment_flat_94.wav,1,False,1241,59,M,3,0.213129,-23.097711
26091964,22,0,2024-02-21T08:14:41.566Z,male_vraiment_flat_94.wav,1,False,1241,59,M,4,0.284172,-47.481676
26091964,22,0,2024-02-21T08:14:41.566Z,male_vraiment_flat_94.wav,1,False,1241,59,M,5,0.355215,-120.450621
26091964,22,0,2024-02-21T08:14:41.566Z,male_vraiment_flat_94.wav,1,False,1241,59,M,6,0.426259,-116.887604
26091964,23,0,2024-02-21T08:14:41.566Z,male_vraiment_flat_128.wav,0,True,853,59,M,0,0.000000,-144.911109
26091964,23,0,2024-02-21T08:14:41.566Z,male_vraiment_flat_128.wav,0,True,853,59,M,1,0.071043,-110.844671
26091964,23,0,2024-02-21T08:14:41.566Z,male_vraiment_flat_128.wav,0,True,853,59,M,2,0.142086,35.068695
26091964,23,0,2024-02-21T08:14:41.566Z,male_vraiment_flat_128.wav,0,True,853,59,M,3,0.213129,-95.248162
26091964,23,0,2024-02-21T08:14:41.566Z,male_vraiment_flat_128.wav,0,True,853,59,M,4,0.284172,-45.012706
26091964,23,0,2024-02-21T08:14:41.566Z,male_vraiment_flat_128.wav,0,True,853,59,M,5,0.355215,79.801624
26091964,23,0,2024-02-21T08:14:41.566Z,male_vraiment_flat_128.wav,0,True,853,59,M,6,0.426259,-47.761682
26091964,23,0,2024-02-21T08:14:41.566Z,male_vraiment_flat_140.wav,1,False,853,59,M,0,0.000000,-149.304179
26091964,23,0,2024-02-21T08:14:41.566Z,male_vraiment_flat_140.wav,1,False,853,59,M,1,0.071043,148.600586
26091964,23,0,2024-02-21T08:14:41.566Z,male_vraiment_flat_140.wav,1,False,853,59,M,2,0.142086,-115.715849
26091964,23,0,2024-02-21T08:14:41.566Z,male_vraiment_flat_140.wav,1,False,853,59,M,3,0.213129,139.265939
26091964,23,0,2024-02-21T08:14:41.566Z,male_vraiment_flat_140.wav,1,False,853,59,M,4,0.284172,45.121427
26091964,23,0,2024-02-21T08:14:41.566Z,male_vraiment_flat_140.wav,1,False,853,59,M,5,0.355215,-93.318951
26091964,23,0,2024-02-21T08:14:41.566Z,male_vraiment_flat_140.wav,1,False,853,59,M,6,0.426259,-66.215565
26091964,24,0,2024-02-21T08:14:41.566Z,male_vraiment_flat_137.wav,0,False,1315,59,M,0,0.000000,80.130674
26091964,24,0,2024-02-21T08:14:41.566Z,male_vraiment_flat_137.wav,0,False,1315,59,M,1,0.071043,138.574149
26091964,24,0,2024-02-21T08:14:41.566Z,male_vraiment_flat_137.wav,0,False,1315,59,M,2,0.142086,75.493630
26091964,24,0,2024-02-21T08:14:41.566Z,male_vraiment_flat_137.wav,0,False,1315,59,M,3,0.213129,-91.745449
26091964,24,0,2024-02-21T08:14:41.566Z,male_vraiment_flat_137.wav,0,False,1315,59,M,4,0.284172,67.674634
26091964,24,0,2024-02-21T08:14:41.566Z,male_vraiment_flat_137.wav,0,False,1315,59,M,5,0.355215,136.412365
26091964,24,0,2024-02-21T08:14:41.566Z,male_vraiment_flat_137.wav,0,False,1315,59,M,6,0.426259,13.296001
26091964,24,0,2024-02-21T08:14:41.566Z,male_vraiment_flat_119.wav,1,True,1315,59,M,0,0.000000,-44.932226
26091964,24,0,2024-02-21T08:14:41.566Z,male_vraiment_flat_119.wav,1,True,1315,59,M,1,0.071043,12.460519
26091964,24,0,2024-02-21T08:14:41.566Z,male_vraiment_flat_119.wav,1,True,1315,59,M,2,0.142086,58.855712
26091964,24,0,2024-02-21T08:14:41.566Z,male_vraiment_flat_119.wav,1,True,1315,59,M,3,0.213129,26.967779
26091964,24,0,2024-02-21T08:14:41.566Z,male_vraiment_flat_119.wav,1,True,1315,59,M,4,0.284172,139.969902
26091964,24,0,2024-02-21T08:14:41.566Z,male_vraiment_flat_119.wav,1,True,1315,59,M,5,0.355215,49.325586
26091964,24,0,2024-02-21T08:14:41.566Z,male_vraiment_flat_119.wav,1,True,1315,59,M,6,0.426259,89.552624
26091964,25,0,2024-02-21T08:14:41.566Z,male_vraiment_flat_167.wav,0,False,573,59,M,0,0.000000,-97.244470
26091964,25,0,2024-02-21T08:14:41.566Z,male_vraiment_flat_167.wav,0,False,573,59,M,1,0.071043,55.519403
26091964,25,0,2024-02-21T08:14:41.566Z,male_vraiment_flat_167.wav,0,False,573,59,M,2,0.142086,-125.285214
26091964,25,0,2024-02-21T08:14:41.566Z,male_vraiment_flat_167.wav,0,False,573,59,M,3,0.213129,-87.843825
26091964,25,0,2024-02-21T08:14:41.566Z,male_vraiment_flat_167.wav,0,False,573,59,M,4,0.284172,-127.750284
26091964,25,0,2024-02-21T08:14:41.566Z,male_vraiment_flat_167.wav,0,False,573,59,M,5,0.355215,-93.631866
26091964,25,0,2024-02-21T08:14:41.566Z,male_vraiment_flat_167.wav,0,False,573,59,M,6,0.426259,6.691804
26091964,25,0,2024-02-21T08:14:41.566Z,male_vraiment_flat_66.wav,1,True,573,59,M,0,0.000000,96.429433
26091964,25,0,2024-02-21T08:14:41.566Z,male_vraiment_flat_66.wav,1,True,573,59,M,1,0.071043,13.373052
26091964,25,0,2024-02-21T08:14:41.566Z,male_vraiment_flat_66.wav,1,True,573,59,M,2,0.142086,112.602816
26091964,25,0,2024-02-21T08:14:41.566Z,male_vraiment_flat_66.wav,1,True,573,59,M,3,0.213129,110.292573
26091964,25,0,2024-02-21T08:14:41.566Z,male_vraiment_flat_66.wav,1,True,573,59,M,4,0.284172,-89.729138
26091964,25,0,2024-02-21T08:14:41.566Z,male_vraiment_flat_66.wav,1,True,573,59,M,5,0.355215,-67.456514
26091964,25,0,2024-02-21T08:14:41.566Z,male_vraiment_flat_66.wav,1,True,573,59,M,6,0.426259,79.997172
26091964,26,0,2024-02-21T08:14:41.566Z,male_vraiment_flat_103.wav,0,True,1398,59,M,0,0.000000,107.674069
26091964,26,0,2024-02-21T08:14:41.566Z,male_vraiment_flat_103.wav,0,True,1398,59,M,1,0.071043,149.413476
26091964,26,0,2024-02-21T08:14:41.566Z,male_vraiment_flat_103.wav,0,True,1398,59,M,2,0.142086,-1.049319
26091964,26,0,2024-02-21T08:14:41.566Z,male_vraiment_flat_103.wav,0,True,1398,59,M,3,0.213129,-7.353867
26091964,26,0,2024-02-21T08:14:41.566Z,male_vraiment_flat_103.wav,0,True,1398,59,M,4,0.284172,-2.169492
26091964,26,0,2024-02-21T08:14:41.566Z,male_vraiment_flat_103.wav,0,True,1398,59,M,5,0.355215,-94.854916
26091964,26,0,2024-02-21T08:14:41.566Z,male_vraiment_flat_103.wav,0,True,1398,59,M,6,0.426259,119.487430
26091964,26,0,2024-02-21T08:14:41.566Z,male_vraiment_flat_19.wav,1,False,1398,59,M,0,0.000000,-23.596543
26091964,26,0,2024-02-21T08:14:41.566Z,male_vraiment_flat_19.wav,1,False,1398,59,M,1,0.071043,-71.824414
26091964,26,0,2024-02-21T08:14:41.566Z,male_vraiment_flat_19.wav,1,False,1398,59,M,2,0.142086,88.506579
26091964,26,0,2024-02-21T08:14:41.566Z,male_vraiment_flat_19.wav,1,False,1398,59,M,3,0.213129,-79.935804
26091964,26,0,2024-02-21T08:14:41.566Z,male_vraiment_flat_19.wav,1,False,1398,59,M,4,0.284172,97.974212
26091964,26,0,2024-02-21T08:14:41.566Z,male_vraiment_flat_19.wav,1,False,1398,59,M,5,0.355215,-89.439384
26091964,26,0,2024-02-21T08:14:41.566Z,male_vraiment_flat_19.wav,1,False,1398,59,M,6,0.426259,-131.198163
26091964,27,0,2024-02-21T08:14:41.566Z,male_vraiment_flat_189.wav,0,False,2661,59,M,0,0.000000,53.448621
26091964,27,0,2024-02-21T08:14:41.566Z,male_vraiment_flat_189.wav,0,False,2661,59,M,1,0.071043,82.292801
26091964,27,0,2024-02-21T08:14:41.566Z,male_vraiment_flat_189.wav,0,False,2661,59,M,2,0.142086,-89.509706
26091964,27,0,2024-02-21T08:14:41.566Z,male_vraiment_flat_189.wav,0,False,2661,59,M,3,0.213129,61.203077
26091964,27,0,2024-02-21T08:14:41.566Z,male_vraiment_flat_189.wav,0,False,2661,59,M,4,0.284172,-64.080431
26091964,27,0,2024-02-21T08:14:41.566Z,male_vraiment_flat_189.wav,0,False,2661,59,M,5,0.355215,71.408242
26091964,27,0,2024-02-21T08:14:41.566Z,male_vraiment_flat_189.wav,0,False,2661,59,M,6,0.426259,-96.299976
26091964,27,0,2024-02-21T08:14:41.566Z,male_vraiment_flat_125.wav,1,True,2661,59,M,0,0.000000,-40.862052
26091964,27,0,2024-02-21T08:14:41.566Z,male_vraiment_flat_125.wav,1,True,2661,59,M,1,0.071043,93.193290
26091964,27,0,2024-02-21T08:14:41.566Z,male_vraiment_flat_125.wav,1,True,2661,59,M,2,0.142086,71.046063
26091964,27,0,2024-02-21T08:14:41.566Z,male_vraiment_flat_125.wav,1,True,2661,59,M,3,0.213129,-144.093496
26091964,27,0,2024-02-21T08:14:41.566Z,male_vraiment_flat_125.wav,1,True,2661,59,M,4,0.284172,-1.218193
26091964,27,0,2024-02-21T08:14:41.566Z,male_vraiment_flat_125.wav,1,True,2661,59,M,5,0.355215,94.223966
26091964,27,0,2024-02-21T08:14:41.566Z,male_vraiment_flat_125.wav,1,True,2661,59,M,6,0.426259,-56.349938
26091964,28,0,2024-02-21T08:14:41.566Z,male_vraiment_flat_73.wav,0,True,1176,59,M,0,0.000000,116.322519
26091964,28,0,2024-02-21T08:14:41.566Z,male_vraiment_flat_73.wav,0,True,1176,59,M,1,0.071043,-36.491811
26091964,28,0,2024-02-21T08:14:41.566Z,male_vraiment_flat_73.wav,0,True,1176,59,M,2,0.142086,56.992902
26091964,28,0,2024-02-21T08:14:41.566Z,male_vraiment_flat_73.wav,0,True,1176,59,M,3,0.213129,-102.405714
26091964,28,0,2024-02-21T08:14:41.566Z,male_vraiment_flat_73.wav,0,True,1176,59,M,4,0.284172,18.027278
26091964,28,0,2024-02-21T08:14:41.566Z,male_vraiment_flat_73.wav,0,True,1176,59,M,5,0.355215,92.986932
26091964,28,0,2024-02-21T08:14:41.566Z,male_vraiment_flat_73.wav,0,True,1176,59,M,6,0.426259,-12.148577
26091964,28,0,2024-02-21T08:14:41.566Z,male_vraiment_flat_155.wav,1,False,1176,59,M,0,0.000000,-140.284917
26091964,28,0,2024-02-21T08:14:41.566Z,male_vraiment_flat_155.wav,1,False,1176,59,M,1,0.071043,56.043903
26091964,28,0,2024-02-21T08:14:41.566Z,male_vraiment_flat_155.wav,1,False,1176,59,M,2,0.142086,-2.142699
26091964,28,0,2024-02-21T08:14:41.566Z,male_vraiment_flat_155.wav,1,False,1176,59,M,3,0.213129,-41.999388
26091964,28,0,2024-02-21T08:14:41.566Z,male_vraiment_flat_155.wav,1,False,1176,59,M,4,0.284172,-69.522618
26091964,28,0,2024-02-21T08:14:41.566Z,male_vraiment_flat_155.wav,1,False,1176,59,M,5,0.355215,29.697532
26091964,28,0,2024-02-21T08:14:41.566Z,male_vraiment_flat_155.wav,1,False,1176,59,M,6,0.426259,40.565741
26091964,29,0,2024-02-21T08:14:41.566Z,male_vraiment_flat_61.wav,0,True,741,59,M,0,0.000000,-131.156457
26091964,29,0,2024-02-21T08:14:41.566Z,male_vraiment_flat_61.wav,0,True,741,59,M,1,0.071043,-97.865916
26091964,29,0,2024-02-21T08:14:41.566Z,male_vraiment_flat_61.wav,0,True,741,59,M,2,0.142086,61.528867
26091964,29,0,2024-02-21T08:14:41.566Z,male_vraiment_flat_61.wav,0,True,741,59,M,3,0.213129,-10.532302
26091964,29,0,2024-02-21T08:14:41.566Z,male_vraiment_flat_61.wav,0,True,741,59,M,4,0.284172,-59.471070
26091964,29,0,2024-02-21T08:14:41.566Z,male_vraiment_flat_61.wav,0,True,741,59,M,5,0.355215,77.665776
26091964,29,0,2024-02-21T08:14:41.566Z,male_vraiment_flat_61.wav,0,True,741,59,M,6,0.426259,-95.375701
26091964,29,0,2024-02-21T08:14:41.566Z,male_vraiment_flat_18.wav,1,False,741,59,M,0,0.000000,-126.424441
26091964,29,0,2024-02-21T08:14:41.566Z,male_vraiment_flat_18.wav,1,False,741,59,M,1,0.071043,-57.286238
26091964,29,0,2024-02-21T08:14:41.566Z,male_vraiment_flat_18.wav,1,False,741,59,M,2,0.142086,14.494248
26091964,29,0,2024-02-21T08:14:41.566Z,male_vraiment_flat_18.wav,1,False,741,59,M,3,0.213129,11.325267
26091964,29,0,2024-02-21T08:14:41.566Z,male_vraiment_flat_18.wav,1,False,741,59,M,4,0.284172,-20.022709
26091964,29,0,2024-02-21T08:14:41.566Z,male_vraiment_flat_18.wav,1,False,741,59,M,5,0.355215,-67.838631
26091964,29,0,2024-02-21T08:14:41.566Z,male_vraiment_flat_18.wav,1,False,741,59,M,6,0.426259,-75.619086
26091964,30,0,2024-02-21T08:14:41.566Z,male_vraiment_flat_92.wav,0,True,933,59,M,0,0.000000,46.869845
26091964,30,0,2024-02-21T08:14:41.566Z,male_vraiment_flat_92.wav,0,True,933,59,M,1,0.071043,-22.303854
26091964,30,0,2024-02-21T08:14:41.566Z,male_vraiment_flat_92.wav,0,True,933,59,M,2,0.142086,54.218629
26091964,30,0,2024-02-21T08:14:41.566Z,male_vraiment_flat_92.wav,0,True,933,59,M,3,0.213129,-37.706610
26091964,30,0,2024-02-21T08:14:41.566Z,male_vraiment_flat_92.wav,0,True,933,59,M,4,0.284172,48.467677
26091964,30,0,2024-02-21T08:14:41.566Z,male_vraiment_flat_92.wav,0,True,933,59,M,5,0.355215,-36.671620
26091964,30,0,2024-02-21T08:14:41.566Z,male_vraiment_flat_92.wav,0,True,933,59,M,6,0.426259,-103.238186
26091964,30,0,2024-02-21T08:14:41.566Z,male_vraiment_flat_117.wav,1,False,933,59,M,0,0.000000,20.648074
26091964,30,0,2024-02-21T08:14:41.566Z,male_vraiment_flat_117.wav,1,False,933,59,M,1,0.071043,145.233438
26091964,30,0,2024-02-21T08:14:41.566Z,male_vraiment_flat_117.wav,1,False,933,59,M,2,0.142086,42.346521
26091964,30,0,2024-02-21T08:14:41.566Z,male_vraiment_flat_117.wav,1,False,933,59,M,3,0.213129,-116.594338
26091964,30,0,2024-02-21T08:14:41.566Z,male_vraiment_flat_117.wav,1,False,933,59,M,4,0.284172,94.892274
26091964,30,0,2024-02-21T08:14:41.566Z,male_vraiment_flat_117.wav,1,False,933,59,M,5,0.355215,-123.170662
26091964,30,0,2024-02-21T08:14:41.566Z,male_vraiment_flat_117.wav,1,False,933,59,M,6,0.426259,83.715702
26091964,31,0,2024-02-21T08:14:41.566Z,male_vraiment_flat_139.wav,0,True,558,59,M,0,0.000000,-131.535185
26091964,31,0,2024-02-21T08:14:41.566Z,male_vraiment_flat_139.wav,0,True,558,59,M,1,0.071043,-10.702864
26091964,31,0,2024-02-21T08:14:41.566Z,male_vraiment_flat_139.wav,0,True,558,59,M,2,0.142086,-8.370040
26091964,31,0,2024-02-21T08:14:41.566Z,male_vraiment_flat_139.wav,0,True,558,59,M,3,0.213129,83.706839
26091964,31,0,2024-02-21T08:14:41.566Z,male_vraiment_flat_139.wav,0,True,558,59,M,4,0.284172,-28.836111
26091964,31,0,2024-02-21T08:14:41.566Z,male_vraiment_flat_139.wav,0,True,558,59,M,5,0.355215,8.499607
26091964,31,0,2024-02-21T08:14:41.566Z,male_vraiment_flat_139.wav,0,True,558,59,M,6,0.426259,-85.859123
26091964,31,0,2024-02-21T08:14:41.566Z,male_vraiment_flat_47.wav,1,False,558,59,M,0,0.000000,11.243959
26091964,31,0,2024-02-21T08:14:41.566Z,male_vraiment_flat_47.wav,1,False,558,59,M,1,0.071043,-131.885563
26091964,31,0,2024-02-21T08:14:41.566Z,male_vraiment_flat_47.wav,1,False,558,59,M,2,0.142086,22.720944
26091964,31,0,2024-02-21T08:14:41.566Z,male_vraiment_flat_47.wav,1,False,558,59,M,3,0.213129,-98.981706
26091964,31,0,2024-02-21T08:14:41.566Z,male_vraiment_flat_47.wav,1,False,558,59,M,4,0.284172,-117.392555
26091964,31,0,2024-02-21T08:14:41.566Z,male_vraiment_flat_47.wav,1,False,558,59,M,5,0.355215,-7.362816
26091964,31,0,2024-02-21T08:14:41.566Z,male_vraiment_flat_47.wav,1,False,558,59,M,6,0.426259,149.963589
26091964,32,0,2024-02-21T08:14:41.566Z,male_vraiment_flat_105.wav,0,True,691,59,M,0,0.000000,125.556012
26091964,32,0,2024-02-21T08:14:41.566Z,male_vraiment_flat_105.wav,0,True,691,59,M,1,0.071043,102.885047
26091964,32,0,2024-02-21T08:14:41.566Z,male_vraiment_flat_105.wav,0,True,691,59,M,2,0.142086,-23.318884
26091964,32,0,2024-02-21T08:14:41.566Z,male_vraiment_flat_105.wav,0,True,691,59,M,3,0.213129,96.270063
26091964,32,0,2024-02-21T08:14:41.566Z,male_vraiment_flat_105.wav,0,True,691,59,M,4,0.284172,-32.661499
26091964,32,0,2024-02-21T08:14:41.566Z,male_vraiment_flat_105.wav,0,True,691,59,M,5,0.355215,-7.829717
26091964,32,0,2024-02-21T08:14:41.566Z,male_vraiment_flat_105.wav,0,True,691,59,M,6,0.426259,-13.047753
26091964,32,0,2024-02-21T08:14:41.566Z,male_vraiment_flat_163.wav,1,False,691,59,M,0,0.000000,-73.767207
26091964,32,0,2024-02-21T08:14:41.566Z,male_vraiment_flat_163.wav,1,False,691,59,M,1,0.071043,23.213677
26091964,32,0,2024-02-21T08:14:41.566Z,male_vraiment_flat_163.wav,1,False,691,59,M,2,0.142086,-14.939662
26091964,32,0,2024-02-21T08:14:41.566Z,male_vraiment_flat_163.wav,1,False,691,59,M,3,0.213129,-71.864469
26091964,32,0,2024-02-21T08:14:41.566Z,male_vraiment_flat_163.wav,1,False,691,59,M,4,0.284172,-38.295965
26091964,32,0,2024-02-21T08:14:41.566Z,male_vraiment_flat_163.wav,1,False,691,59,M,5,0.355215,-52.851418
26091964,32,0,2024-02-21T08:14:41.566Z,male_vraiment_flat_163.wav,1,False,691,59,M,6,0.426259,-70.943671
26091964,33,0,2024-02-21T08:14:41.566Z,male_vraiment_flat_151.wav,0,True,1868,59,M,0,0.000000,-67.748525
26091964,33,0,2024-02-21T08:14:41.566Z,male_vraiment_flat_151.wav,0,True,1868,59,M,1,0.071043,54.361913
26091964,33,0,2024-02-21T08:14:41.566Z,male_vraiment_flat_151.wav,0,True,1868,59,M,2,0.142086,-48.392138
26091964,33,0,2024-02-21T08:14:41.566Z,male_vraiment_flat_151.wav,0,True,1868,59,M,3,0.213129,35.257299
26091964,33,0,2024-02-21T08:14:41.566Z,male_vraiment_flat_151.wav,0,True,1868,59,M,4,0.284172,30.428121
26091964,33,0,2024-02-21T08:14:41.566Z,male_vraiment_flat_151.wav,0,True,1868,59,M,5,0.355215,28.910983
26091964,33,0,2024-02-21T08:14:41.566Z,male_vraiment_flat_151.wav,0,True,1868,59,M,6,0.426259,-22.593444
26091964,33,0,2024-02-21T08:14:41.566Z,male_vraiment_flat_186.wav,1,False,1868,59,M,0,0.000000,-146.338275
26091964,33,0,2024-02-21T08:14:41.566Z,male_vraiment_flat_186.wav,1,False,1868,59,M,1,0.071043,17.632346
26091964,33,0,2024-02-21T08:14:41.566Z,male_vraiment_flat_186.wav,1,False,1868,59,M,2,0.142086,135.683559
26091964,33,0,2024-02-21T08:14:41.566Z,male_vraiment_flat_186.wav,1,False,1868,59,M,3,0.213129,133.054558
26091964,33,0,2024-02-21T08:14:41.566Z,male_vraiment_flat_186.wav,1,False,1868,59,M,4,0.284172,-31.983178
26091964,33,0,2024-02-21T08:14:41.566Z,male_vraiment_flat_186.wav,1,False,1868,59,M,5,0.355215,-117.937109
26091964,33,0,2024-02-21T08:14:41.566Z,male_vraiment_flat_186.wav,1,False,1868,59,M,6,0.426259,-78.681829
26091964,34,0,2024-02-21T08:14:41.566Z,male_vraiment_flat_36.wav,0,False,1193,59,M,0,0.000000,-33.837960
26091964,34,0,2024-02-21T08:14:41.566Z,male_vraiment_flat_36.wav,0,False,1193,59,M,1,0.071043,102.134309
26091964,34,0,2024-02-21T08:14:41.566Z,male_vraiment_flat_36.wav,0,False,1193,59,M,2,0.142086,100.949665
26091964,34,0,2024-02-21T08:14:41.566Z,male_vraiment_flat_36.wav,0,False,1193,59,M,3,0.213129,77.352428
26091964,34,0,2024-02-21T08:14:41.566Z,male_vraiment_flat_36.wav,0,False,1193,59,M,4,0.284172,-1.995321
26091964,34,0,2024-02-21T08:14:41.566Z,male_vraiment_flat_36.wav,0,False,1193,59,M,5,0.355215,-13.382838
26091964,34,0,2024-02-21T08:14:41.566Z,male_vraiment_flat_36.wav,0,False,1193,59,M,6,0.426259,-42.807835
26091964,34,0,2024-02-21T08:14:41.566Z,male_vraiment_flat_48.wav,1,True,1193,59,M,0,0.000000,90.503303
26091964,34,0,2024-02-21T08:14:41.566Z,male_vraiment_flat_48.wav,1,True,1193,59,M,1,0.071043,6.970948
26091964,34,0,2024-02-21T08:14:41.566Z,male_vraiment_flat_48.wav,1,True,1193,59,M,2,0.142086,67.030496
26091964,34,0,2024-02-21T08:14:41.566Z,male_vraiment_flat_48.wav,1,True,1193,59,M,3,0.213129,131.765290
26091964,34,0,2024-02-21T08:14:41.566Z,male_vraiment_flat_48.wav,1,True,1193,59,M,4,0.284172,144.593501
26091964,34,0,2024-02-21T08:14:41.566Z,male_vraiment_flat_48.wav,1,True,1193,59,M,5,0.355215,16.017944
26091964,34,0,2024-02-21T08:14:41.566Z,male_vraiment_flat_48.wav,1,True,1193,59,M,6,0.426259,-146.021483
26091964,35,0,2024-02-21T08:14:41.566Z,male_vraiment_flat_2.wav,0,True,998,59,M,0,0.000000,-26.280713
26091964,35,0,2024-02-21T08:14:41.566Z,male_vraiment_flat_2.wav,0,True,998,59,M,1,0.071043,83.932106
26091964,35,0,2024-02-21T08:14:41.566Z,male_vraiment_flat_2.wav,0,True,998,59,M,2,0.142086,59.369452
26091964,35,0,2024-02-21T08:14:41.566Z,male_vraiment_flat_2.wav,0,True,998,59,M,3,0.213129,8.881156
26091964,35,0,2024-02-21T08:14:41.566Z,male_vraiment_flat_2.wav,0,True,998,59,M,4,0.284172,3.498385
26091964,35,0,2024-02-21T08:14:41.566Z,male_vraiment_flat_2.wav,0,True,998,59,M,5,0.355215,-133.430007
26091964,35,0,2024-02-21T08:14:41.566Z,male_vraiment_flat_2.wav,0,True,998,59,M,6,0.426259,94.606197
26091964,35,0,2024-02-21T08:14:41.566Z,male_vraiment_flat_50.wav,1,False,998,59,M,0,0.000000,96.336182
26091964,35,0,2024-02-21T08:14:41.566Z,male_vraiment_flat_50.wav,1,False,998,59,M,1,0.071043,-104.561128
26091964,35,0,2024-02-21T08:14:41.566Z,male_vraiment_flat_50.wav,1,False,998,59,M,2,0.142086,-130.066913
26091964,35,0,2024-02-21T08:14:41.566Z,male_vraiment_flat_50.wav,1,False,998,59,M,3,0.213129,-24.308766
26091964,35,0,2024-02-21T08:14:41.566Z,male_vraiment_flat_50.wav,1,False,998,59,M,4,0.284172,40.127472
26091964,35,0,2024-02-21T08:14:41.566Z,male_vraiment_flat_50.wav,1,False,998,59,M,5,0.355215,49.388454
26091964,35,0,2024-02-21T08:14:41.566Z,male_vraiment_flat_50.wav,1,False,998,59,M,6,0.426259,116.704022
26091964,36,0,2024-02-21T08:14:41.566Z,male_vraiment_flat_17.wav,0,False,1520,59,M,0,0.000000,91.198655
26091964,36,0,2024-02-21T08:14:41.566Z,male_vraiment_flat_17.wav,0,False,1520,59,M,1,0.071043,44.952547
26091964,36,0,2024-02-21T08:14:41.566Z,male_vraiment_flat_17.wav,0,False,1520,59,M,2,0.142086,-82.852461
26091964,36,0,2024-02-21T08:14:41.566Z,male_vraiment_flat_17.wav,0,False,1520,59,M,3,0.213129,-89.451177
26091964,36,0,2024-02-21T08:14:41.566Z,male_vraiment_flat_17.wav,0,False,1520,59,M,4,0.284172,-149.534475
26091964,36,0,2024-02-21T08:14:41.566Z,male_vraiment_flat_17.wav,0,False,1520,59,M,5,0.355215,-107.621144
26091964,36,0,2024-02-21T08:14:41.566Z,male_vraiment_flat_17.wav,0,False,1520,59,M,6,0.426259,-93.535165
26091964,36,0,2024-02-21T08:14:41.566Z,male_vraiment_flat_59.wav,1,True,1520,59,M,0,0.000000,-36.418372
26091964,36,0,2024-02-21T08:14:41.566Z,male_vraiment_flat_59.wav,1,True,1520,59,M,1,0.071043,84.104587
26091964,36,0,2024-02-21T08:14:41.566Z,male_vraiment_flat_59.wav,1,True,1520,59,M,2,0.142086,132.070943
26091964,36,0,2024-02-21T08:14:41.566Z,male_vraiment_flat_59.wav,1,True,1520,59,M,3,0.213129,-36.088233
26091964,36,0,2024-02-21T08:14:41.566Z,male_vraiment_flat_59.wav,1,True,1520,59,M,4,0.284172,-93.351425
26091964,36,0,2024-02-21T08:14:41.566Z,male_vraiment_flat_59.wav,1,True,1520,59,M,5,0.355215,57.665522
26091964,36,0,2024-02-21T08:14:41.566Z,male_vraiment_flat_59.wav,1,True,1520,59,M,6,0.426259,137.323922
26091964,37,0,2024-02-21T08:14:41.566Z,male_vraiment_flat_199.wav,0,False,1470,59,M,0,0.000000,-30.664010
26091964,37,0,2024-02-21T08:14:41.566Z,male_vraiment_flat_199.wav,0,False,1470,59,M,1,0.071043,2.060872
26091964,37,0,2024-02-21T08:14:41.566Z,male_vraiment_flat_199.wav,0,False,1470,59,M,2,0.142086,-136.256691
26091964,37,0,2024-02-21T08:14:41.566Z,male_vraiment_flat_199.wav,0,False,1470,59,M,3,0.213129,20.654546
26091964,37,0,2024-02-21T08:14:41.566Z,male_vraiment_flat_199.wav,0,False,1470,59,M,4,0.284172,41.179386
26091964,37,0,2024-02-21T08:14:41.566Z,male_vraiment_flat_199.wav,0,False,1470,59,M,5,0.355215,1.343346
26091964,37,0,2024-02-21T08:14:41.566Z,male_vraiment_flat_199.wav,0,False,1470,59,M,6,0.426259,140.228288
26091964,37,0,2024-02-21T08:14:41.566Z,male_vraiment_flat_71.wav,1,True,1470,59,M,0,0.000000,98.558580
26091964,37,0,2024-02-21T08:14:41.566Z,male_vraiment_flat_71.wav,1,True,1470,59,M,1,0.071043,119.886109
26091964,37,0,2024-02-21T08:14:41.566Z,male_vraiment_flat_71.wav,1,True,1470,59,M,2,0.142086,-7.976954
26091964,37,0,2024-02-21T08:14:41.566Z,male_vraiment_flat_71.wav,1,True,1470,59,M,3,0.213129,7.397873
26091964,37,0,2024-02-21T08:14:41.566Z,male_vraiment_flat_71.wav,1,True,1470,59,M,4,0.284172,8.946833
26091964,37,0,2024-02-21T08:14:41.566Z,male_vraiment_flat_71.wav,1,True,1470,59,M,5,0.355215,-77.850016
26091964,37,0,2024-02-21T08:14:41.566Z,male_vraiment_flat_71.wav,1,True,1470,59,M,6,0.426259,-8.433981
26091964,38,0,2024-02-21T08:14:41.566Z,male_vraiment_flat_27.wav,0,False,874,59,M,0,0.000000,-44.196026
26091964,38,0,2024-02-21T08:14:41.566Z,male_vraiment_flat_27.wav,0,False,874,59,M,1,0.071043,72.435582
26091964,38,0,2024-02-21T08:14:41.566Z,male_vraiment_flat_27.wav,0,False,874,59,M,2,0.142086,30.880154
26091964,38,0,2024-02-21T08:14:41.566Z,male_vraiment_flat_27.wav,0,False,874,59,M,3,0.213129,-98.055697
26091964,38,0,2024-02-21T08:14:41.566Z,male_vraiment_flat_27.wav,0,False,874,59,M,4,0.284172,83.700413
26091964,38,0,2024-02-21T08:14:41.566Z,male_vraiment_flat_27.wav,0,False,874,59,M,5,0.355215,23.865121
26091964,38,0,2024-02-21T08:14:41.566Z,male_vraiment_flat_27.wav,0,False,874,59,M,6,0.426259,-44.006115
26091964,38,0,2024-02-21T08:14:41.566Z,male_vraiment_flat_134.wav,1,True,874,59,M,0,0.000000,85.320049
26091964,38,0,2024-02-21T08:14:41.566Z,male_vraiment_flat_134.wav,1,True,874,59,M,1,0.071043,2.147850
26091964,38,0,2024-02-21T08:14:41.566Z,male_vraiment_flat_134.wav,1,True,874,59,M,2,0.142086,140.355465
26091964,38,0,2024-02-21T08:14:41.566Z,male_vraiment_flat_134.wav,1,True,874,59,M,3,0.213129,98.923070
26091964,38,0,2024-02-21T08:14:41.566Z,male_vraiment_flat_134.wav,1,True,874,59,M,4,0.284172,20.388975
26091964,38,0,2024-02-21T08:14:41.566Z,male_vraiment_flat_134.wav,1,True,874,59,M,5,0.355215,-4.239426
26091964,38,0,2024-02-21T08:14:41.566Z,male_vraiment_flat_134.wav,1,True,874,59,M,6,0.426259,83.444299
26091964,39,0,2024-02-21T08:14:41.566Z,male_vraiment_flat_138.wav,0,False,468,59,M,0,0.000000,-29.536298
26091964,39,0,2024-02-21T08:14:41.566Z,male_vraiment_flat_138.wav,0,False,468,59,M,1,0.071043,90.685935
26091964,39,0,2024-02-21T08:14:41.566Z,male_vraiment_flat_138.wav,0,False,468,59,M,2,0.142086,-77.044346
26091964,39,0,2024-02-21T08:14:41.566Z,male_vraiment_flat_138.wav,0,False,468,59,M,3,0.213129,-75.264885
26091964,39,0,2024-02-21T08:14:41.566Z,male_vraiment_flat_138.wav,0,False,468,59,M,4,0.284172,-129.490236
26091964,39,0,2024-02-21T08:14:41.566Z,male_vraiment_flat_138.wav,0,False,468,59,M,5,0.355215,-48.940612
26091964,39,0,2024-02-21T08:14:41.566Z,male_vraiment_flat_138.wav,0,False,468,59,M,6,0.426259,-95.647001
26091964,39,0,2024-02-21T08:14:41.566Z,male_vraiment_flat_166.wav,1,True,468,59,M,0,0.000000,40.484109
26091964,39,0,2024-02-21T08:14:41.566Z,male_vraiment_flat_166.wav,1,True,468,59,M,1,0.071043,-10.250913
26091964,39,0,2024-02-21T08:14:41.566Z,male_vraiment_flat_166.wav,1,True,468,59,M,2,0.142086,-109.726305
26091964,39,0,2024-02-21T08:14:41.566Z,male_vraiment_flat_166.wav,1,True,468,59,M,3,0.213129,-32.205058
26091964,39,0,2024-02-21T08:14:41.566Z,male_vraiment_flat_166.wav,1,True,468,59,M,4,0.284172,141.461363
26091964,39,0,2024-02-21T08:14:41.566Z,male_vraiment_flat_166.wav,1,True,468,59,M,5,0.355215,65.199031
26091964,39,0,2024-02-21T08:14:41.566Z,male_vraiment_flat_166.wav,1,True,468,59,M,6,0.426259,-54.014549
26091964,40,0,2024-02-21T08:14:41.566Z,male_vraiment_flat_98.wav,0,True,1349,59,M,0,0.000000,102.170357
26091964,40,0,2024-02-21T08:14:41.566Z,male_vraiment_flat_98.wav,0,True,1349,59,M,1,0.071043,20.715456
26091964,40,0,2024-02-21T08:14:41.566Z,male_vraiment_flat_98.wav,0,True,1349,59,M,2,0.142086,81.972821
26091964,40,0,2024-02-21T08:14:41.566Z,male_vraiment_flat_98.wav,0,True,1349,59,M,3,0.213129,-125.018297
26091964,40,0,2024-02-21T08:14:41.566Z,male_vraiment_flat_98.wav,0,True,1349,59,M,4,0.284172,103.374214
26091964,40,0,2024-02-21T08:14:41.566Z,male_vraiment_flat_98.wav,0,True,1349,59,M,5,0.355215,-81.704677
26091964,40,0,2024-02-21T08:14:41.566Z,male_vraiment_flat_98.wav,0,True,1349,59,M,6,0.426259,85.109238
26091964,40,0,2024-02-21T08:14:41.566Z,male_vraiment_flat_28.wav,1,False,1349,59,M,0,0.000000,82.321174
26091964,40,0,2024-02-21T08:14:41.566Z,male_vraiment_flat_28.wav,1,False,1349,59,M,1,0.071043,-139.171806
26091964,40,0,2024-02-21T08:14:41.566Z,male_vraiment_flat_28.wav,1,False,1349,59,M,2,0.142086,-25.451767
26091964,40,0,2024-02-21T08:14:41.566Z,male_vraiment_flat_28.wav,1,False,1349,59,M,3,0.213129,-113.179723
26091964,40,0,2024-02-21T08:14:41.566Z,male_vraiment_flat_28.wav,1,False,1349,59,M,4,0.284172,-97.955774
26091964,40,0,2024-02-21T08:14:41.566Z,male_vraiment_flat_28.wav,1,False,1349,59,M,5,0.355215,43.444463
26091964,40,0,2024-02-21T08:14:41.566Z,male_vraiment_flat_28.wav,1,False,1349,59,M,6,0.426259,-9.291608
26091964,41,0,2024-02-21T08:14:41.566Z,male_vraiment_flat_156.wav,0,True,1535,59,M,0,0.000000,62.995907
26091964,41,0,2024-02-21T08:14:41.566Z,male_vraiment_flat_156.wav,0,True,1535,59,M,1,0.071043,-119.801161
26091964,41,0,2024-02-21T08:14:41.566Z,male_vraiment_flat_156.wav,0,True,1535,59,M,2,0.142086,-125.261471
26091964,41,0,2024-02-21T08:14:41.566Z,male_vraiment_flat_156.wav,0,True,1535,59,M,3,0.213129,110.918732
26091964,41,0,2024-02-21T08:14:41.566Z,male_vraiment_flat_156.wav,0,True,1535,59,M,4,0.284172,-27.635219
26091964,41,0,2024-02-21T08:14:41.566Z,male_vraiment_flat_156.wav,0,True,1535,59,M,5,0.355215,57.926930
26091964,41,0,2024-02-21T08:14:41.566Z,male_vraiment_flat_156.wav,0,True,1535,59,M,6,0.426259,-85.703842
26091964,41,0,2024-02-21T08:14:41.566Z,male_vraiment_flat_42.wav,1,False,1535,59,M,0,0.000000,-6.709342
26091964,41,0,2024-02-21T08:14:41.566Z,male_vraiment_flat_42.wav,1,False,1535,59,M,1,0.071043,35.704202
26091964,41,0,2024-02-21T08:14:41.566Z,male_vraiment_flat_42.wav,1,False,1535,59,M,2,0.142086,-71.421689
26091964,41,0,2024-02-21T08:14:41.566Z,male_vraiment_flat_42.wav,1,False,1535,59,M,3,0.213129,-126.906461
26091964,41,0,2024-02-21T08:14:41.566Z,male_vraiment_flat_42.wav,1,False,1535,59,M,4,0.284172,10.231121
26091964,41,0,2024-02-21T08:14:41.566Z,male_vraiment_flat_42.wav,1,False,1535,59,M,5,0.355215,128.933526
26091964,41,0,2024-02-21T08:14:41.566Z,male_vraiment_flat_42.wav,1,False,1535,59,M,6,0.426259,-76.727395
26091964,42,0,2024-02-21T08:14:41.566Z,male_vraiment_flat_0.wav,0,False,1000,59,M,0,0.000000,9.896041
26091964,42,0,2024-02-21T08:14:41.566Z,male_vraiment_flat_0.wav,0,False,1000,59,M,1,0.071043,101.528400
26091964,42,0,2024-02-21T08:14:41.566Z,male_vraiment_flat_0.wav,0,False,1000,59,M,2,0.142086,-68.097850
26091964,42,0,2024-02-21T08:14:41.566Z,male_vraiment_flat_0.wav,0,False,1000,59,M,3,0.213129,-142.658303
26091964,42,0,2024-02-21T08:14:41.566Z,male_vraiment_flat_0.wav,0,False,1000,59,M,4,0.284172,-120.248224
26091964,42,0,2024-02-21T08:14:41.566Z,male_vraiment_flat_0.wav,0,False,1000,59,M,5,0.355215,31.293845
26091964,42,0,2024-02-21T08:14:41.566Z,male_vraiment_flat_0.wav,0,False,1000,59,M,6,0.426259,-137.250528
26091964,42,0,2024-02-21T08:14:41.566Z,male_vraiment_flat_91.wav,1,True,1000,59,M,0,0.000000,58.982225
26091964,42,0,2024-02-21T08:14:41.566Z,male_vraiment_flat_91.wav,1,True,1000,59,M,1,0.071043,126.482844
26091964,42,0,2024-02-21T08:14:41.566Z,male_vraiment_flat_91.wav,1,True,1000,59,M,2,0.142086,-120.324305
26091964,42,0,2024-02-21T08:14:41.566Z,male_vraiment_flat_91.wav,1,True,1000,59,M,3,0.213129,54.493295
26091964,42,0,2024-02-21T08:14:41.566Z,male_vraiment_flat_91.wav,1,True,1000,59,M,4,0.284172,74.680181
26091964,42,0,2024-02-21T08:14:41.566Z,male_vraiment_flat_91.wav,1,True,1000,59,M,5,0.355215,99.124880
26091964,42,0,2024-02-21T08:14:41.566Z,male_vraiment_flat_91.wav,1,True,1000,59,M,6,0.426259,-32.505202
26091964,43,0,2024-02-21T08:14:41.566Z,male_vraiment_flat_158.wav,0,True,1150,59,M,0,0.000000,140.907348
26091964,43,0,2024-02-21T08:14:41.566Z,male_vraiment_flat_158.wav,0,True,1150,59,M,1,0.071043,56.647301
26091964,43,0,2024-02-21T08:14:41.566Z,male_vraiment_flat_158.wav,0,True,1150,59,M,2,0.142086,-121.852756
26091964,43,0,2024-02-21T08:14:41.566Z,male_vraiment_flat_158.wav,0,True,1150,59,M,3,0.213129,24.887877
26091964,43,0,2024-02-21T08:14:41.566Z,male_vraiment_flat_158.wav,0,True,1150,59,M,4,0.284172,-16.147612
26091964,43,0,2024-02-21T08:14:41.566Z,male_vraiment_flat_158.wav,0,True,1150,59,M,5,0.355215,22.171837
26091964,43,0,2024-02-21T08:14:41.566Z,male_vraiment_flat_158.wav,0,True,1150,59,M,6,0.426259,-49.022546
26091964,43,0,2024-02-21T08:14:41.566Z,male_vraiment_flat_110.wav,1,False,1150,59,M,0,0.000000,-78.850505
26091964,43,0,2024-02-21T08:14:41.566Z,male_vraiment_flat_110.wav,1,False,1150,59,M,1,0.071043,-96.953533
26091964,43,0,2024-02-21T08:14:41.566Z,male_vraiment_flat_110.wav,1,False,1150,59,M,2,0.142086,-38.365791
26091964,43,0,2024-02-21T08:14:41.566Z,male_vraiment_flat_110.wav,1,False,1150,59,M,3,0.213129,77.506607
26091964,43,0,2024-02-21T08:14:41.566Z,male_vraiment_flat_110.wav,1,False,1150,59,M,4,0.284172,-64.506238
26091964,43,0,2024-02-21T08:14:41.566Z,male_vraiment_flat_110.wav,1,False,1150,59,M,5,0.355215,15.353748
26091964,43,0,2024-02-21T08:14:41.566Z,male_vraiment_flat_110.wav,1,False,1150,59,M,6,0.426259,121.287299
26091964,44,0,2024-02-21T08:14:41.566Z,male_vraiment_flat_123.wav,0,True,1077,59,M,0,0.000000,24.338681
26091964,44,0,2024-02-21T08:14:41.566Z,male_vraiment_flat_123.wav,0,True,1077,59,M,1,0.071043,-76.255610
26091964,44,0,2024-02-21T08:14:41.566Z,male_vraiment_flat_123.wav,0,True,1077,59,M,2,0.142086,16.829571
26091964,44,0,2024-02-21T08:14:41.566Z,male_vraiment_flat_123.wav,0,True,1077,59,M,3,0.213129,3.085792
26091964,44,0,2024-02-21T08:14:41.566Z,male_vraiment_flat_123.wav,0,True,1077,59,M,4,0.284172,81.658793
26091964,44,0,2024-02-21T08:14:41.566Z,male_vraiment_flat_123.wav,0,True,1077,59,M,5,0.355215,73.758354
26091964,44,0,2024-02-21T08:14:41.566Z,male_vraiment_flat_123.wav,0,True,1077,59,M,6,0.426259,103.644220
26091964,44,0,2024-02-21T08:14:41.566Z,male_vraiment_flat_185.wav,1,False,1077,59,M,0,0.000000,7.537788
26091964,44,0,2024-02-21T08:14:41.566Z,male_vraiment_flat_185.wav,1,False,1077,59,M,1,0.071043,138.761382
26091964,44,0,2024-02-21T08:14:41.566Z,male_vraiment_flat_185.wav,1,False,1077,59,M,2,0.142086,88.970452
26091964,44,0,2024-02-21T08:14:41.566Z,male_vraiment_flat_185.wav,1,False,1077,59,M,3,0.213129,-106.980409
26091964,44,0,2024-02-21T08:14:41.566Z,male_vraiment_flat_185.wav,1,False,1077,59,M,4,0.284172,-72.334155
26091964,44,0,2024-02-21T08:14:41.566Z,male_vraiment_flat_185.wav,1,False,1077,59,M,5,0.355215,87.356426
26091964,44,0,2024-02-21T08:14:41.566Z,male_vraiment_flat_185.wav,1,False,1077,59,M,6,0.426259,90.917936
26091964,45,0,2024-02-21T08:14:41.566Z,male_vraiment_flat_30.wav,0,True,1046,59,M,0,0.000000,32.600333
26091964,45,0,2024-02-21T08:14:41.566Z,male_vraiment_flat_30.wav,0,True,1046,59,M,1,0.071043,42.125884
26091964,45,0,2024-02-21T08:14:41.566Z,male_vraiment_flat_30.wav,0,True,1046,59,M,2,0.142086,124.172285
26091964,45,0,2024-02-21T08:14:41.566Z,male_vraiment_flat_30.wav,0,True,1046,59,M,3,0.213129,52.679052
26091964,45,0,2024-02-21T08:14:41.566Z,male_vraiment_flat_30.wav,0,True,1046,59,M,4,0.284172,-111.889461
26091964,45,0,2024-02-21T08:14:41.566Z,male_vraiment_flat_30.wav,0,True,1046,59,M,5,0.355215,64.478579
26091964,45,0,2024-02-21T08:14:41.566Z,male_vraiment_flat_30.wav,0,True,1046,59,M,6,0.426259,22.023880
26091964,45,0,2024-02-21T08:14:41.566Z,male_vraiment_flat_23.wav,1,False,1046,59,M,0,0.000000,27.345676
26091964,45,0,2024-02-21T08:14:41.566Z,male_vraiment_flat_23.wav,1,False,1046,59,M,1,0.071043,118.378449
26091964,45,0,2024-02-21T08:14:41.566Z,male_vraiment_flat_23.wav,1,False,1046,59,M,2,0.142086,35.467907
26091964,45,0,2024-02-21T08:14:41.566Z,male_vraiment_flat_23.wav,1,False,1046,59,M,3,0.213129,-5.979973
26091964,45,0,2024-02-21T08:14:41.566Z,male_vraiment_flat_23.wav,1,False,1046,59,M,4,0.284172,18.578162
26091964,45,0,2024-02-21T08:14:41.566Z,male_vraiment_flat_23.wav,1,False,1046,59,M,5,0.355215,-9.540782
26091964,45,0,2024-02-21T08:14:41.566Z,male_vraiment_flat_23.wav,1,False,1046,59,M,6,0.426259,-13.092534
26091964,46,0,2024-02-21T08:14:41.566Z,male_vraiment_flat_132.wav,0,False,2253,59,M,0,0.000000,-95.735908
26091964,46,0,2024-02-21T08:14:41.566Z,male_vraiment_flat_132.wav,0,False,2253,59,M,1,0.071043,84.596174
26091964,46,0,2024-02-21T08:14:41.566Z,male_vraiment_flat_132.wav,0,False,2253,59,M,2,0.142086,30.815879
26091964,46,0,2024-02-21T08:14:41.566Z,male_vraiment_flat_132.wav,0,False,2253,59,M,3,0.213129,80.998062
26091964,46,0,2024-02-21T08:14:41.566Z,male_vraiment_flat_132.wav,0,False,2253,59,M,4,0.284172,4.635713
26091964,46,0,2024-02-21T08:14:41.566Z,male_vraiment_flat_132.wav,0,False,2253,59,M,5,0.355215,-66.322755
26091964,46,0,2024-02-21T08:14:41.566Z,male_vraiment_flat_132.wav,0,False,2253,59,M,6,0.426259,13.571979
26091964,46,0,2024-02-21T08:14:41.566Z,male_vraiment_flat_84.wav,1,True,2253,59,M,0,0.000000,79.222174
26091964,46,0,2024-02-21T08:14:41.566Z,male_vraiment_flat_84.wav,1,True,2253,59,M,1,0.071043,61.816109
26091964,46,0,2024-02-21T08:14:41.566Z,male_vraiment_flat_84.wav,1,True,2253,59,M,2,0.142086,-111.712238
26091964,46,0,2024-02-21T08:14:41.566Z,male_vraiment_flat_84.wav,1,True,2253,59,M,3,0.213129,96.584947
26091964,46,0,2024-02-21T08:14:41.566Z,male_vraiment_flat_84.wav,1,True,2253,59,M,4,0.284172,-11.292098
26091964,46,0,2024-02-21T08:14:41.566Z,male_vraiment_flat_84.wav,1,True,2253,59,M,5,0.355215,57.720124
26091964,46,0,2024-02-21T08:14:41.566Z,male_vraiment_flat_84.wav,1,True,2253,59,M,6,0.426259,-122.021307
26091964,47,0,2024-02-21T08:14:41.566Z,male_vraiment_flat_29.wav,0,True,693,59,M,0,0.000000,78.626852
26091964,47,0,2024-02-21T08:14:41.566Z,male_vraiment_flat_29.wav,0,True,693,59,M,1,0.071043,124.163952
26091964,47,0,2024-02-21T08:14:41.566Z,male_vraiment_flat_29.wav,0,True,693,59,M,2,0.142086,-62.289103
26091964,47,0,2024-02-21T08:14:41.566Z,male_vraiment_flat_29.wav,0,True,693,59,M,3,0.213129,54.806982
26091964,47,0,2024-02-21T08:14:41.566Z,male_vraiment_flat_29.wav,0,True,693,59,M,4,0.284172,75.809549
26091964,47,0,2024-02-21T08:14:41.566Z,male_vraiment_flat_29.wav,0,True,693,59,M,5,0.355215,87.233703
26091964,47,0,2024-02-21T08:14:41.566Z,male_vraiment_flat_29.wav,0,True,693,59,M,6,0.426259,-95.916715
26091964,47,0,2024-02-21T08:14:41.566Z,male_vraiment_flat_55.wav,1,False,693,59,M,0,0.000000,41.960803
26091964,47,0,2024-02-21T08:14:41.566Z,male_vraiment_flat_55.wav,1,False,693,59,M,1,0.071043,-15.216637
26091964,47,0,2024-02-21T08:14:41.566Z,male_vraiment_flat_55.wav,1,False,693,59,M,2,0.142086,-141.495937
26091964,47,0,2024-02-21T08:14:41.566Z,male_vraiment_flat_55.wav,1,False,693,59,M,3,0.213129,-73.120481
26091964,47,0,2024-02-21T08:14:41.566Z,male_vraiment_flat_55.wav,1,False,693,59,M,4,0.284172,-46.277227
26091964,47,0,2024-02-21T08:14:41.566Z,male_vraiment_flat_55.wav,1,False,693,59,M,5,0.355215,60.235867
26091964,47,0,2024-02-21T08:14:41.566Z,male_vraiment_flat_55.wav,1,False,693,59,M,6,0.426259,0.915299
26091964,48,0,2024-02-21T08:14:41.566Z,male_vraiment_flat_107.wav,0,False,1334,59,M,0,0.000000,147.824484
26091964,48,0,2024-02-21T08:14:41.566Z,male_vraiment_flat_107.wav,0,False,1334,59,M,1,0.071043,-35.753560
26091964,48,0,2024-02-21T08:14:41.566Z,male_vraiment_flat_107.wav,0,False,1334,59,M,2,0.142086,-17.671801
26091964,48,0,2024-02-21T08:14:41.566Z,male_vraiment_flat_107.wav,0,False,1334,59,M,3,0.213129,145.037411
26091964,48,0,2024-02-21T08:14:41.566Z,male_vraiment_flat_107.wav,0,False,1334,59,M,4,0.284172,17.430899
26091964,48,0,2024-02-21T08:14:41.566Z,male_vraiment_flat_107.wav,0,False,1334,59,M,5,0.355215,-34.827913
26091964,48,0,2024-02-21T08:14:41.566Z,male_vraiment_flat_107.wav,0,False,1334,59,M,6,0.426259,-148.430397
26091964,48,0,2024-02-21T08:14:41.566Z,male_vraiment_flat_196.wav,1,True,1334,59,M,0,0.000000,-42.342747
26091964,48,0,2024-02-21T08:14:41.566Z,male_vraiment_flat_196.wav,1,True,1334,59,M,1,0.071043,-81.868734
26091964,48,0,2024-02-21T08:14:41.566Z,male_vraiment_flat_196.wav,1,True,1334,59,M,2,0.142086,-18.906552
26091964,48,0,2024-02-21T08:14:41.566Z,male_vraiment_flat_196.wav,1,True,1334,59,M,3,0.213129,-18.852092
26091964,48,0,2024-02-21T08:14:41.566Z,male_vraiment_flat_196.wav,1,True,1334,59,M,4,0.284172,52.116670
26091964,48,0,2024-02-21T08:14:41.566Z,male_vraiment_flat_196.wav,1,True,1334,59,M,5,0.355215,90.577409
26091964,48,0,2024-02-21T08:14:41.566Z,male_vraiment_flat_196.wav,1,True,1334,59,M,6,0.426259,29.772760
26091964,49,0,2024-02-21T08:14:41.566Z,male_vraiment_flat_46.wav,0,True,1206,59,M,0,0.000000,48.231571
26091964,49,0,2024-02-21T08:14:41.566Z,male_vraiment_flat_46.wav,0,True,1206,59,M,1,0.071043,-13.386862
26091964,49,0,2024-02-21T08:14:41.566Z,male_vraiment_flat_46.wav,0,True,1206,59,M,2,0.142086,107.175029
26091964,49,0,2024-02-21T08:14:41.566Z,male_vraiment_flat_46.wav,0,True,1206,59,M,3,0.213129,24.056117
26091964,49,0,2024-02-21T08:14:41.566Z,male_vraiment_flat_46.wav,0,True,1206,59,M,4,0.284172,72.951541
26091964,49,0,2024-02-21T08:14:41.566Z,male_vraiment_flat_46.wav,0,True,1206,59,M,5,0.355215,123.539508
26091964,49,0,2024-02-21T08:14:41.566Z,male_vraiment_flat_46.wav,0,True,1206,59,M,6,0.426259,50.410407
26091964,49,0,2024-02-21T08:14:41.566Z,male_vraiment_flat_87.wav,1,False,1206,59,M,0,0.000000,123.541183
26091964,49,0,2024-02-21T08:14:41.566Z,male_vraiment_flat_87.wav,1,False,1206,59,M,1,0.071043,-79.641893
26091964,49,0,2024-02-21T08:14:41.566Z,male_vraiment_flat_87.wav,1,False,1206,59,M,2,0.142086,-129.036775
26091964,49,0,2024-02-21T08:14:41.566Z,male_vraiment_flat_87.wav,1,False,1206,59,M,3,0.213129,-12.372422
26091964,49,0,2024-02-21T08:14:41.566Z,male_vraiment_flat_87.wav,1,False,1206,59,M,4,0.284172,47.099802
26091964,49,0,2024-02-21T08:14:41.566Z,male_vraiment_flat_87.wav,1,False,1206,59,M,5,0.355215,133.796504
26091964,49,0,2024-02-21T08:14:41.566Z,male_vraiment_flat_87.wav,1,False,1206,59,M,6,0.426259,125.051187
26091964,50,1,2024-02-21T08:14:41.566Z,male_vraiment_flat_95.wav,0,True,897,59,M,0,0.000000,144.813706
26091964,50,1,2024-02-21T08:14:41.566Z,male_vraiment_flat_95.wav,0,True,897,59,M,1,0.071043,36.420023
26091964,50,1,2024-02-21T08:14:41.566Z,male_vraiment_flat_95.wav,0,True,897,59,M,2,0.142086,-15.581887
26091964,50,1,2024-02-21T08:14:41.566Z,male_vraiment_flat_95.wav,0,True,897,59,M,3,0.213129,-108.080315
26091964,50,1,2024-02-21T08:14:41.566Z,male_vraiment_flat_95.wav,0,True,897,59,M,4,0.284172,44.827040
26091964,50,1,2024-02-21T08:14:41.566Z,male_vraiment_flat_95.wav,0,True,897,59,M,5,0.355215,-140.857646
26091964,50,1,2024-02-21T08:14:41.566Z,male_vraiment_flat_95.wav,0,True,897,59,M,6,0.426259,-19.601185
26091964,50,1,2024-02-21T08:14:41.566Z,male_vraiment_flat_90.wav,1,False,897,59,M,0,0.000000,39.615876
26091964,50,1,2024-02-21T08:14:41.566Z,male_vraiment_flat_90.wav,1,False,897,59,M,1,0.071043,-130.464689
26091964,50,1,2024-02-21T08:14:41.566Z,male_vraiment_flat_90.wav,1,False,897,59,M,2,0.142086,46.838016
26091964,50,1,2024-02-21T08:14:41.566Z,male_vraiment_flat_90.wav,1,False,897,59,M,3,0.213129,104.861302
26091964,50,1,2024-02-21T08:14:41.566Z,male_vraiment_flat_90.wav,1,False,897,59,M,4,0.284172,-102.459680
26091964,50,1,2024-02-21T08:14:41.566Z,male_vraiment_flat_90.wav,1,False,897,59,M,5,0.355215,-91.275011
26091964,50,1,2024-02-21T08:14:41.566Z,male_vraiment_flat_90.wav,1,False,897,59,M,6,0.426259,45.823426
26091964,51,1,2024-02-21T08:14:41.566Z,male_vraiment_flat_175.wav,0,False,2504,59,M,0,0.000000,-48.933192
26091964,51,1,2024-02-21T08:14:41.566Z,male_vraiment_flat_175.wav,0,False,2504,59,M,1,0.071043,23.459372
26091964,51,1,2024-02-21T08:14:41.566Z,male_vraiment_flat_175.wav,0,False,2504,59,M,2,0.142086,-82.944560
26091964,51,1,2024-02-21T08:14:41.566Z,male_vraiment_flat_175.wav,0,False,2504,59,M,3,0.213129,-41.749231
26091964,51,1,2024-02-21T08:14:41.566Z,male_vraiment_flat_175.wav,0,False,2504,59,M,4,0.284172,4.976289
26091964,51,1,2024-02-21T08:14:41.566Z,male_vraiment_flat_175.wav,0,False,2504,59,M,5,0.355215,52.438424
26091964,51,1,2024-02-21T08:14:41.566Z,male_vraiment_flat_175.wav,0,False,2504,59,M,6,0.426259,-117.325248
26091964,51,1,2024-02-21T08:14:41.566Z,male_vraiment_flat_21.wav,1,True,2504,59,M,0,0.000000,84.422922
26091964,51,1,2024-02-21T08:14:41.566Z,male_vraiment_flat_21.wav,1,True,2504,59,M,1,0.071043,34.734306
26091964,51,1,2024-02-21T08:14:41.566Z,male_vraiment_flat_21.wav,1,True,2504,59,M,2,0.142086,84.348012
26091964,51,1,2024-02-21T08:14:41.566Z,male_vraiment_flat_21.wav,1,True,2504,59,M,3,0.213129,-112.005491
26091964,51,1,2024-02-21T08:14:41.566Z,male_vraiment_flat_21.wav,1,True,2504,59,M,4,0.284172,147.407394
26091964,51,1,2024-02-21T08:14:41.566Z,male_vraiment_flat_21.wav,1,True,2504,59,M,5,0.355215,-6.622355
26091964,51,1,2024-02-21T08:14:41.566Z,male_vraiment_flat_21.wav,1,True,2504,59,M,6,0.426259,125.674103
26091964,52,1,2024-02-21T08:14:41.566Z,male_vraiment_flat_146.wav,0,True,1161,59,M,0,0.000000,92.610651
26091964,52,1,2024-02-21T08:14:41.566Z,male_vraiment_flat_146.wav,0,True,1161,59,M,1,0.071043,40.250954
26091964,52,1,2024-02-21T08:14:41.566Z,male_vraiment_flat_146.wav,0,True,1161,59,M,2,0.142086,99.988333
26091964,52,1,2024-02-21T08:14:41.566Z,male_vraiment_flat_146.wav,0,True,1161,59,M,3,0.213129,115.543405
26091964,52,1,2024-02-21T08:14:41.566Z,male_vraiment_flat_146.wav,0,True,1161,59,M,4,0.284172,-3.607960
26091964,52,1,2024-02-21T08:14:41.566Z,male_vraiment_flat_146.wav,0,True,1161,59,M,5,0.355215,-91.494225
26091964,52,1,2024-02-21T08:14:41.566Z,male_vraiment_flat_146.wav,0,True,1161,59,M,6,0.426259,-109.708123
26091964,52,1,2024-02-21T08:14:41.566Z,male_vraiment_flat_193.wav,1,False,1161,59,M,0,0.000000,-104.498046
26091964,52,1,2024-02-21T08:14:41.566Z,male_vraiment_flat_193.wav,1,False,1161,59,M,1,0.071043,27.454942
26091964,52,1,2024-02-21T08:14:41.566Z,male_vraiment_flat_193.wav,1,False,1161,59,M,2,0.142086,-81.084240
26091964,52,1,2024-02-21T08:14:41.566Z,male_vraiment_flat_193.wav,1,False,1161,59,M,3,0.213129,-66.105426
26091964,52,1,2024-02-21T08:14:41.566Z,male_vraiment_flat_193.wav,1,False,1161,59,M,4,0.284172,-18.843418
26091964,52,1,2024-02-21T08:14:41.566Z,male_vraiment_flat_193.wav,1,False,1161,59,M,5,0.355215,59.447118
26091964,52,1,2024-02-21T08:14:41.566Z,male_vraiment_flat_193.wav,1,False,1161,59,M,6,0.426259,86.357299
26091964,53,1,2024-02-21T08:14:41.566Z,male_vraiment_flat_5.wav,0,True,456,59,M,0,0.000000,88.556797
26091964,53,1,2024-02-21T08:14:41.566Z,male_vraiment_flat_5.wav,0,True,456,59,M,1,0.071043,120.959384
26091964,53,1,2024-02-21T08:14:41.566Z,male_vraiment_flat_5.wav,0,True,456,59,M,2,0.142086,-116.065822
26091964,53,1,2024-02-21T08:14:41.566Z,male_vraiment_flat_5.wav,0,True,456,59,M,3,0.213129,130.464712
26091964,53,1,2024-02-21T08:14:41.566Z,male_vraiment_flat_5.wav,0,True,456,59,M,4,0.284172,88.167919
26091964,53,1,2024-02-21T08:14:41.566Z,male_vraiment_flat_5.wav,0,True,456,59,M,5,0.355215,75.417329
26091964,53,1,2024-02-21T08:14:41.566Z,male_vraiment_flat_5.wav,0,True,456,59,M,6,0.426259,65.499211
26091964,53,1,2024-02-21T08:14:41.566Z,male_vraiment_flat_157.wav,1,False,456,59,M,0,0.000000,20.473057
26091964,53,1,2024-02-21T08:14:41.566Z,male_vraiment_flat_157.wav,1,False,456,59,M,1,0.071043,-103.427341
26091964,53,1,2024-02-21T08:14:41.566Z,male_vraiment_flat_157.wav,1,False,456,59,M,2,0.142086,-58.670290
26091964,53,1,2024-02-21T08:14:41.566Z,male_vraiment_flat_157.wav,1,False,456,59,M,3,0.213129,-88.181786
26091964,53,1,2024-02-21T08:14:41.566Z,male_vraiment_flat_157.wav,1,False,456,59,M,4,0.284172,-145.892431
26091964,53,1,2024-02-21T08:14:41.566Z,male_vraiment_flat_157.wav,1,False,456,59,M,5,0.355215,-121.197130
26091964,53,1,2024-02-21T08:14:41.566Z,male_vraiment_flat_157.wav,1,False,456,59,M,6,0.426259,3.215116
26091964,54,1,2024-02-21T08:14:41.566Z,male_vraiment_flat_174.wav,0,True,1339,59,M,0,0.000000,12.449350
26091964,54,1,2024-02-21T08:14:41.566Z,male_vraiment_flat_174.wav,0,True,1339,59,M,1,0.071043,17.986555
26091964,54,1,2024-02-21T08:14:41.566Z,male_vraiment_flat_174.wav,0,True,1339,59,M,2,0.142086,-72.720888
26091964,54,1,2024-02-21T08:14:41.566Z,male_vraiment_flat_174.wav,0,True,1339,59,M,3,0.213129,41.369679
26091964,54,1,2024-02-21T08:14:41.566Z,male_vraiment_flat_174.wav,0,True,1339,59,M,4,0.284172,-146.787018
26091964,54,1,2024-02-21T08:14:41.566Z,male_vraiment_flat_174.wav,0,True,1339,59,M,5,0.355215,3.271800
26091964,54,1,2024-02-21T08:14:41.566Z,male_vraiment_flat_174.wav,0,True,1339,59,M,6,0.426259,26.686198
26091964,54,1,2024-02-21T08:14:41.566Z,male_vraiment_flat_63.wav,1,False,1339,59,M,0,0.000000,106.489910
26091964,54,1,2024-02-21T08:14:41.566Z,male_vraiment_flat_63.wav,1,False,1339,59,M,1,0.071043,-87.090173
26091964,54,1,2024-02-21T08:14:41.566Z,male_vraiment_flat_63.wav,1,False,1339,59,M,2,0.142086,63.865444
26091964,54,1,2024-02-21T08:14:41.566Z,male_vraiment_flat_63.wav,1,False,1339,59,M,3,0.213129,-130.111458
26091964,54,1,2024-02-21T08:14:41.566Z,male_vraiment_flat_63.wav,1,False,1339,59,M,4,0.284172,45.870405
26091964,54,1,2024-02-21T08:14:41.566Z,male_vraiment_flat_63.wav,1,False,1339,59,M,5,0.355215,-60.104934
26091964,54,1,2024-02-21T08:14:41.566Z,male_vraiment_flat_63.wav,1,False,1339,59,M,6,0.426259,67.674520
26091964,55,1,2024-02-21T08:14:41.566Z,male_vraiment_flat_178.wav,0,False,1355,59,M,0,0.000000,-112.052653
26091964,55,1,2024-02-21T08:14:41.566Z,male_vraiment_flat_178.wav,0,False,1355,59,M,1,0.071043,-21.378049
26091964,55,1,2024-02-21T08:14:41.566Z,male_vraiment_flat_178.wav,0,False,1355,59,M,2,0.142086,71.395950
26091964,55,1,2024-02-21T08:14:41.566Z,male_vraiment_flat_178.wav,0,False,1355,59,M,3,0.213129,66.817796
26091964,55,1,2024-02-21T08:14:41.566Z,male_vraiment_flat_178.wav,0,False,1355,59,M,4,0.284172,25.203350
26091964,55,1,2024-02-21T08:14:41.566Z,male_vraiment_flat_178.wav,0,False,1355,59,M,5,0.355215,-37.010641
26091964,55,1,2024-02-21T08:14:41.566Z,male_vraiment_flat_178.wav,0,False,1355,59,M,6,0.426259,88.032365
26091964,55,1,2024-02-21T08:14:41.566Z,male_vraiment_flat_4.wav,1,True,1355,59,M,0,0.000000,98.226066
26091964,55,1,2024-02-21T08:14:41.566Z,male_vraiment_flat_4.wav,1,True,1355,59,M,1,0.071043,119.322928
26091964,55,1,2024-02-21T08:14:41.566Z,male_vraiment_flat_4.wav,1,True,1355,59,M,2,0.142086,-139.339853
26091964,55,1,2024-02-21T08:14:41.566Z,male_vraiment_flat_4.wav,1,True,1355,59,M,3,0.213129,-46.932317
26091964,55,1,2024-02-21T08:14:41.566Z,male_vraiment_flat_4.wav,1,True,1355,59,M,4,0.284172,-13.288809
26091964,55,1,2024-02-21T08:14:41.566Z,male_vraiment_flat_4.wav,1,True,1355,59,M,5,0.355215,94.861826
26091964,55,1,2024-02-21T08:14:41.566Z,male_vraiment_flat_4.wav,1,True,1355,59,M,6,0.426259,-84.397607
26091964,56,1,2024-02-21T08:14:41.566Z,male_vraiment_flat_169.wav,0,True,984,59,M,0,0.000000,117.441793
26091964,56,1,2024-02-21T08:14:41.566Z,male_vraiment_flat_169.wav,0,True,984,59,M,1,0.071043,-117.459261
26091964,56,1,2024-02-21T08:14:41.566Z,male_vraiment_flat_169.wav,0,True,984,59,M,2,0.142086,-45.020491
26091964,56,1,2024-02-21T08:14:41.566Z,male_vraiment_flat_169.wav,0,True,984,59,M,3,0.213129,-67.699150
26091964,56,1,2024-02-21T08:14:41.566Z,male_vraiment_flat_169.wav,0,True,984,59,M,4,0.284172,-122.755451
26091964,56,1,2024-02-21T08:14:41.566Z,male_vraiment_flat_169.wav,0,True,984,59,M,5,0.355215,-10.702133
26091964,56,1,2024-02-21T08:14:41.566Z,male_vraiment_flat_169.wav,0,True,984,59,M,6,0.426259,66.943327
26091964,56,1,2024-02-21T08:14:41.566Z,male_vraiment_flat_101.wav,1,False,984,59,M,0,0.000000,69.316576
26091964,56,1,2024-02-21T08:14:41.566Z,male_vraiment_flat_101.wav,1,False,984,59,M,1,0.071043,-9.395360
26091964,56,1,2024-02-21T08:14:41.566Z,male_vraiment_flat_101.wav,1,False,984,59,M,2,0.142086,-16.210020
26091964,56,1,2024-02-21T08:14:41.566Z,male_vraiment_flat_101.wav,1,False,984,59,M,3,0.213129,5.282415
26091964,56,1,2024-02-21T08:14:41.566Z,male_vraiment_flat_101.wav,1,False,984,59,M,4,0.284172,-92.031474
26091964,56,1,2024-02-21T08:14:41.566Z,male_vraiment_flat_101.wav,1,False,984,59,M,5,0.355215,-71.382142
26091964,56,1,2024-02-21T08:14:41.566Z,male_vraiment_flat_101.wav,1,False,984,59,M,6,0.426259,-144.168558
26091964,57,1,2024-02-21T08:14:41.566Z,male_vraiment_flat_83.wav,0,False,3281,59,M,0,0.000000,-23.907946
26091964,57,1,2024-02-21T08:14:41.566Z,male_vraiment_flat_83.wav,0,False,3281,59,M,1,0.071043,-0.791729
26091964,57,1,2024-02-21T08:14:41.566Z,male_vraiment_flat_83.wav,0,False,3281,59,M,2,0.142086,23.610634
26091964,57,1,2024-02-21T08:14:41.566Z,male_vraiment_flat_83.wav,0,False,3281,59,M,3,0.213129,-35.411923
26091964,57,1,2024-02-21T08:14:41.566Z,male_vraiment_flat_83.wav,0,False,3281,59,M,4,0.284172,101.109402
26091964,57,1,2024-02-21T08:14:41.566Z,male_vraiment_flat_83.wav,0,False,3281,59,M,5,0.355215,-51.929212
26091964,57,1,2024-02-21T08:14:41.566Z,male_vraiment_flat_83.wav,0,False,3281,59,M,6,0.426259,-104.958378
26091964,57,1,2024-02-21T08:14:41.566Z,male_vraiment_flat_124.wav,1,True,3281,59,M,0,0.000000,-7.963711
26091964,57,1,2024-02-21T08:14:41.566Z,male_vraiment_flat_124.wav,1,True,3281,59,M,1,0.071043,-56.081883
26091964,57,1,2024-02-21T08:14:41.566Z,male_vraiment_flat_124.wav,1,True,3281,59,M,2,0.142086,-78.115299
26091964,57,1,2024-02-21T08:14:41.566Z,male_vraiment_flat_124.wav,1,True,3281,59,M,3,0.213129,-24.811935
26091964,57,1,2024-02-21T08:14:41.566Z,male_vraiment_flat_124.wav,1,True,3281,59,M,4,0.284172,-9.003272
26091964,57,1,2024-02-21T08:14:41.566Z,male_vraiment_flat_124.wav,1,True,3281,59,M,5,0.355215,13.712214
26091964,57,1,2024-02-21T08:14:41.566Z,male_vraiment_flat_124.wav,1,True,3281,59,M,6,0.426259,140.048390
26091964,58,1,2024-02-21T08:14:41.566Z,male_vraiment_flat_74.wav,0,True,660,59,M,0,0.000000,71.293232
26091964,58,1,2024-02-21T08:14:41.566Z,male_vraiment_flat_74.wav,0,True,660,59,M,1,0.071043,32.860121
26091964,58,1,2024-02-21T08:14:41.566Z,male_vraiment_flat_74.wav,0,True,660,59,M,2,0.142086,-85.825735
26091964,58,1,2024-02-21T08:14:41.566Z,male_vraiment_flat_74.wav,0,True,660,59,M,3,0.213129,70.628085
26091964,58,1,2024-02-21T08:14:41.566Z,male_vraiment_flat_74.wav,0,True,660,59,M,4,0.284172,126.928038
26091964,58,1,2024-02-21T08:14:41.566Z,male_vraiment_flat_74.wav,0,True,660,59,M,5,0.355215,120.083362
26091964,58,1,2024-02-21T08:14:41.566Z,male_vraiment_flat_74.wav,0,True,660,59,M,6,0.426259,92.661740
26091964,58,1,2024-02-21T08:14:41.566Z,male_vraiment_flat_49.wav,1,False,660,59,M,0,0.000000,-83.600042
26091964,58,1,2024-02-21T08:14:41.566Z,male_vraiment_flat_49.wav,1,False,660,59,M,1,0.071043,-14.728623
26091964,58,1,2024-02-21T08:14:41.566Z,male_vraiment_flat_49.wav,1,False,660,59,M,2,0.142086,25.142138
26091964,58,1,2024-02-21T08:14:41.566Z,male_vraiment_flat_49.wav,1,False,660,59,M,3,0.213129,135.875151
26091964,58,1,2024-02-21T08:14:41.566Z,male_vraiment_flat_49.wav,1,False,660,59,M,4,0.284172,60.117986
26091964,58,1,2024-02-21T08:14:41.566Z,male_vraiment_flat_49.wav,1,False,660,59,M,5,0.355215,-135.086661
26091964,58,1,2024-02-21T08:14:41.566Z,male_vraiment_flat_49.wav,1,False,660,59,M,6,0.426259,-32.809615
26091964,59,1,2024-02-21T08:14:41.566Z,male_vraiment_flat_112.wav,0,True,489,59,M,0,0.000000,40.318333
26091964,59,1,2024-02-21T08:14:41.566Z,male_vraiment_flat_112.wav,0,True,489,59,M,1,0.071043,28.779991
26091964,59,1,2024-02-21T08:14:41.566Z,male_vraiment_flat_112.wav,0,True,489,59,M,2,0.142086,-86.990654
26091964,59,1,2024-02-21T08:14:41.566Z,male_vraiment_flat_112.wav,0,True,489,59,M,3,0.213129,-136.064498
26091964,59,1,2024-02-21T08:14:41.566Z,male_vraiment_flat_112.wav,0,True,489,59,M,4,0.284172,89.286191
26091964,59,1,2024-02-21T08:14:41.566Z,male_vraiment_flat_112.wav,0,True,489,59,M,5,0.355215,99.616935
26091964,59,1,2024-02-21T08:14:41.566Z,male_vraiment_flat_112.wav,0,True,489,59,M,6,0.426259,-61.253639
26091964,59,1,2024-02-21T08:14:41.566Z,male_vraiment_flat_100.wav,1,False,489,59,M,0,0.000000,43.543409
26091964,59,1,2024-02-21T08:14:41.566Z,male_vraiment_flat_100.wav,1,False,489,59,M,1,0.071043,103.015481
26091964,59,1,2024-02-21T08:14:41.566Z,male_vraiment_flat_100.wav,1,False,489,59,M,2,0.142086,72.119204
26091964,59,1,2024-02-21T08:14:41.566Z,male_vraiment_flat_100.wav,1,False,489,59,M,3,0.213129,-134.244223
26091964,59,1,2024-02-21T08:14:41.566Z,male_vraiment_flat_100.wav,1,False,489,59,M,4,0.284172,118.896008
26091964,59,1,2024-02-21T08:14:41.566Z,male_vraiment_flat_100.wav,1,False,489,59,M,5,0.355215,-31.136245
26091964,59,1,2024-02-21T08:14:41.566Z,male_vraiment_flat_100.wav,1,False,489,59,M,6,0.426259,41.834207
26091964,60,1,2024-02-21T08:14:41.566Z,male_vraiment_flat_32.wav,0,True,686,59,M,0,0.000000,-83.957947
26091964,60,1,2024-02-21T08:14:41.566Z,male_vraiment_flat_32.wav,0,True,686,59,M,1,0.071043,68.475222
26091964,60,1,2024-02-21T08:14:41.566Z,male_vraiment_flat_32.wav,0,True,686,59,M,2,0.142086,-59.489465
26091964,60,1,2024-02-21T08:14:41.566Z,male_vraiment_flat_32.wav,0,True,686,59,M,3,0.213129,64.566697
26091964,60,1,2024-02-21T08:14:41.566Z,male_vraiment_flat_32.wav,0,True,686,59,M,4,0.284172,-27.267557
26091964,60,1,2024-02-21T08:14:41.566Z,male_vraiment_flat_32.wav,0,True,686,59,M,5,0.355215,94.356275
26091964,60,1,2024-02-21T08:14:41.566Z,male_vraiment_flat_32.wav,0,True,686,59,M,6,0.426259,27.666308
26091964,60,1,2024-02-21T08:14:41.566Z,male_vraiment_flat_120.wav,1,False,686,59,M,0,0.000000,20.081065
26091964,60,1,2024-02-21T08:14:41.566Z,male_vraiment_flat_120.wav,1,False,686,59,M,1,0.071043,100.844988
26091964,60,1,2024-02-21T08:14:41.566Z,male_vraiment_flat_120.wav,1,False,686,59,M,2,0.142086,-34.199178
26091964,60,1,2024-02-21T08:14:41.566Z,male_vraiment_flat_120.wav,1,False,686,59,M,3,0.213129,-3.979999
26091964,60,1,2024-02-21T08:14:41.566Z,male_vraiment_flat_120.wav,1,False,686,59,M,4,0.284172,-132.448085
26091964,60,1,2024-02-21T08:14:41.566Z,male_vraiment_flat_120.wav,1,False,686,59,M,5,0.355215,-95.704719
26091964,60,1,2024-02-21T08:14:41.566Z,male_vraiment_flat_120.wav,1,False,686,59,M,6,0.426259,-2.125632
26091964,61,1,2024-02-21T08:14:41.566Z,male_vraiment_flat_44.wav,0,False,891,59,M,0,0.000000,-41.207511
26091964,61,1,2024-02-21T08:14:41.566Z,male_vraiment_flat_44.wav,0,False,891,59,M,1,0.071043,-36.343841
26091964,61,1,2024-02-21T08:14:41.566Z,male_vraiment_flat_44.wav,0,False,891,59,M,2,0.142086,111.477084
26091964,61,1,2024-02-21T08:14:41.566Z,male_vraiment_flat_44.wav,0,False,891,59,M,3,0.213129,5.942406
26091964,61,1,2024-02-21T08:14:41.566Z,male_vraiment_flat_44.wav,0,False,891,59,M,4,0.284172,108.539673
26091964,61,1,2024-02-21T08:14:41.566Z,male_vraiment_flat_44.wav,0,False,891,59,M,5,0.355215,-120.732661
26091964,61,1,2024-02-21T08:14:41.566Z,male_vraiment_flat_44.wav,0,False,891,59,M,6,0.426259,-22.824839
26091964,61,1,2024-02-21T08:14:41.566Z,male_vraiment_flat_192.wav,1,True,891,59,M,0,0.000000,46.973159
26091964,61,1,2024-02-21T08:14:41.566Z,male_vraiment_flat_192.wav,1,True,891,59,M,1,0.071043,-61.711820
26091964,61,1,2024-02-21T08:14:41.566Z,male_vraiment_flat_192.wav,1,True,891,59,M,2,0.142086,14.836428
26091964,61,1,2024-02-21T08:14:41.566Z,male_vraiment_flat_192.wav,1,True,891,59,M,3,0.213129,30.862549
26091964,61,1,2024-02-21T08:14:41.566Z,male_vraiment_flat_192.wav,1,True,891,59,M,4,0.284172,28.459321
26091964,61,1,2024-02-21T08:14:41.566Z,male_vraiment_flat_192.wav,1,True,891,59,M,5,0.355215,2.114815
26091964,61,1,2024-02-21T08:14:41.566Z,male_vraiment_flat_192.wav,1,True,891,59,M,6,0.426259,86.651936
26091964,62,1,2024-02-21T08:14:41.566Z,male_vraiment_flat_57.wav,0,False,382,59,M,0,0.000000,-38.971396
26091964,62,1,2024-02-21T08:14:41.566Z,male_vraiment_flat_57.wav,0,False,382,59,M,1,0.071043,127.210639
26091964,62,1,2024-02-21T08:14:41.566Z,male_vraiment_flat_57.wav,0,False,382,59,M,2,0.142086,-100.465383
26091964,62,1,2024-02-21T08:14:41.566Z,male_vraiment_flat_57.wav,0,False,382,59,M,3,0.213129,-139.526819
26091964,62,1,2024-02-21T08:14:41.566Z,male_vraiment_flat_57.wav,0,False,382,59,M,4,0.284172,-149.467980
26091964,62,1,2024-02-21T08:14:41.566Z,male_vraiment_flat_57.wav,0,False,382,59,M,5,0.355215,-50.432071
26091964,62,1,2024-02-21T08:14:41.566Z,male_vraiment_flat_57.wav,0,False,382,59,M,6,0.426259,15.305878
26091964,62,1,2024-02-21T08:14:41.566Z,male_vraiment_flat_165.wav,1,True,382,59,M,0,0.000000,-133.486308
26091964,62,1,2024-02-21T08:14:41.566Z,male_vraiment_flat_165.wav,1,True,382,59,M,1,0.071043,-51.704384
26091964,62,1,2024-02-21T08:14:41.566Z,male_vraiment_flat_165.wav,1,True,382,59,M,2,0.142086,123.734410
26091964,62,1,2024-02-21T08:14:41.566Z,male_vraiment_flat_165.wav,1,True,382,59,M,3,0.213129,-122.063627
26091964,62,1,2024-02-21T08:14:41.566Z,male_vraiment_flat_165.wav,1,True,382,59,M,4,0.284172,105.373754
26091964,62,1,2024-02-21T08:14:41.566Z,male_vraiment_flat_165.wav,1,True,382,59,M,5,0.355215,42.489978
26091964,62,1,2024-02-21T08:14:41.566Z,male_vraiment_flat_165.wav,1,True,382,59,M,6,0.426259,65.536300
26091964,63,1,2024-02-21T08:14:41.566Z,male_vraiment_flat_13.wav,0,False,440,59,M,0,0.000000,-66.984077
26091964,63,1,2024-02-21T08:14:41.566Z,male_vraiment_flat_13.wav,0,False,440,59,M,1,0.071043,5.429279
26091964,63,1,2024-02-21T08:14:41.566Z,male_vraiment_flat_13.wav,0,False,440,59,M,2,0.142086,12.572717
26091964,63,1,2024-02-21T08:14:41.566Z,male_vraiment_flat_13.wav,0,False,440,59,M,3,0.213129,-71.562953
26091964,63,1,2024-02-21T08:14:41.566Z,male_vraiment_flat_13.wav,0,False,440,59,M,4,0.284172,-107.999901
26091964,63,1,2024-02-21T08:14:41.566Z,male_vraiment_flat_13.wav,0,False,440,59,M,5,0.355215,86.606735
26091964,63,1,2024-02-21T08:14:41.566Z,male_vraiment_flat_13.wav,0,False,440,59,M,6,0.426259,-82.122177
26091964,63,1,2024-02-21T08:14:41.566Z,male_vraiment_flat_159.wav,1,True,440,59,M,0,0.000000,-84.088119
26091964,63,1,2024-02-21T08:14:41.566Z,male_vraiment_flat_159.wav,1,True,440,59,M,1,0.071043,11.677970
26091964,63,1,2024-02-21T08:14:41.566Z,male_vraiment_flat_159.wav,1,True,440,59,M,2,0.142086,70.948823
26091964,63,1,2024-02-21T08:14:41.566Z,male_vraiment_flat_159.wav,1,True,440,59,M,3,0.213129,101.030552
26091964,63,1,2024-02-21T08:14:41.566Z,male_vraiment_flat_159.wav,1,True,440,59,M,4,0.284172,35.233409
26091964,63,1,2024-02-21T08:14:41.566Z,male_vraiment_flat_159.wav,1,True,440,59,M,5,0.355215,70.014692
26091964,63,1,2024-02-21T08:14:41.566Z,male_vraiment_flat_159.wav,1,True,440,59,M,6,0.426259,-21.284009
26091964,64,1,2024-02-21T08:14:41.566Z,male_vraiment_flat_69.wav,0,False,422,59,M,0,0.000000,-3.170538
26091964,64,1,2024-02-21T08:14:41.566Z,male_vraiment_flat_69.wav,0,False,422,59,M,1,0.071043,35.318973
26091964,64,1,2024-02-21T08:14:41.566Z,male_vraiment_flat_69.wav,0,False,422,59,M,2,0.142086,9.650212
26091964,64,1,2024-02-21T08:14:41.566Z,male_vraiment_flat_69.wav,0,False,422,59,M,3,0.213129,140.461686
26091964,64,1,2024-02-21T08:14:41.566Z,male_vraiment_flat_69.wav,0,False,422,59,M,4,0.284172,-72.489288
26091964,64,1,2024-02-21T08:14:41.566Z,male_vraiment_flat_69.wav,0,False,422,59,M,5,0.355215,-111.567531
26091964,64,1,2024-02-21T08:14:41.566Z,male_vraiment_flat_69.wav,0,False,422,59,M,6,0.426259,62.840145
26091964,64,1,2024-02-21T08:14:41.566Z,male_vraiment_flat_33.wav,1,True,422,59,M,0,0.000000,77.429006
26091964,64,1,2024-02-21T08:14:41.566Z,male_vraiment_flat_33.wav,1,True,422,59,M,1,0.071043,25.170622
26091964,64,1,2024-02-21T08:14:41.566Z,male_vraiment_flat_33.wav,1,True,422,59,M,2,0.142086,-65.854422
26091964,64,1,2024-02-21T08:14:41.566Z,male_vraiment_flat_33.wav,1,True,422,59,M,3,0.213129,106.380035
26091964,64,1,2024-02-21T08:14:41.566Z,male_vraiment_flat_33.wav,1,True,422,59,M,4,0.284172,126.948212
26091964,64,1,2024-02-21T08:14:41.566Z,male_vraiment_flat_33.wav,1,True,422,59,M,5,0.355215,88.675782
26091964,64,1,2024-02-21T08:14:41.566Z,male_vraiment_flat_33.wav,1,True,422,59,M,6,0.426259,-129.822255
26091964,65,1,2024-02-21T08:14:41.566Z,male_vraiment_flat_11.wav,0,True,1677,59,M,0,0.000000,106.632802
26091964,65,1,2024-02-21T08:14:41.566Z,male_vraiment_flat_11.wav,0,True,1677,59,M,1,0.071043,30.235531
26091964,65,1,2024-02-21T08:14:41.566Z,male_vraiment_flat_11.wav,0,True,1677,59,M,2,0.142086,-31.934811
26091964,65,1,2024-02-21T08:14:41.566Z,male_vraiment_flat_11.wav,0,True,1677,59,M,3,0.213129,-70.817469
26091964,65,1,2024-02-21T08:14:41.566Z,male_vraiment_flat_11.wav,0,True,1677,59,M,4,0.284172,-134.947845
26091964,65,1,2024-02-21T08:14:41.566Z,male_vraiment_flat_11.wav,0,True,1677,59,M,5,0.355215,-61.866249
26091964,65,1,2024-02-21T08:14:41.566Z,male_vraiment_flat_11.wav,0,True,1677,59,M,6,0.426259,61.370028
26091964,65,1,2024-02-21T08:14:41.566Z,male_vraiment_flat_89.wav,1,False,1677,59,M,0,0.000000,109.966045
26091964,65,1,2024-02-21T08:14:41.566Z,male_vraiment_flat_89.wav,1,False,1677,59,M,1,0.071043,3.952874
26091964,65,1,2024-02-21T08:14:41.566Z,male_vraiment_flat_89.wav,1,False,1677,59,M,2,0.142086,14.687736
26091964,65,1,2024-02-21T08:14:41.566Z,male_vraiment_flat_89.wav,1,False,1677,59,M,3,0.213129,-59.041416
26091964,65,1,2024-02-21T08:14:41.566Z,male_vraiment_flat_89.wav,1,False,1677,59,M,4,0.284172,-42.151762
26091964,65,1,2024-02-21T08:14:41.566Z,male_vraiment_flat_89.wav,1,False,1677,59,M,5,0.355215,-148.779325
26091964,65,1,2024-02-21T08:14:41.566Z,male_vraiment_flat_89.wav,1,False,1677,59,M,6,0.426259,-61.315288
26091964,66,1,2024-02-21T08:14:41.566Z,male_vraiment_flat_34.wav,0,False,5399,59,M,0,0.000000,55.759121
26091964,66,1,2024-02-21T08:14:41.566Z,male_vraiment_flat_34.wav,0,False,5399,59,M,1,0.071043,56.428420
26091964,66,1,2024-02-21T08:14:41.566Z,male_vraiment_flat_34.wav,0,False,5399,59,M,2,0.142086,-58.759553
26091964,66,1,2024-02-21T08:14:41.566Z,male_vraiment_flat_34.wav,0,False,5399,59,M,3,0.213129,-145.130290
26091964,66,1,2024-02-21T08:14:41.566Z,male_vraiment_flat_34.wav,0,False,5399,59,M,4,0.284172,109.056087
26091964,66,1,2024-02-21T08:14:41.566Z,male_vraiment_flat_34.wav,0,False,5399,59,M,5,0.355215,-133.281135
26091964,66,1,2024-02-21T08:14:41.566Z,male_vraiment_flat_34.wav,0,False,5399,59,M,6,0.426259,-126.261912
26091964,66,1,2024-02-21T08:14:41.566Z,male_vraiment_flat_149.wav,1,True,5399,59,M,0,0.000000,17.402596
26091964,66,1,2024-02-21T08:14:41.566Z,male_vraiment_flat_149.wav,1,True,5399,59,M,1,0.071043,-44.390985
26091964,66,1,2024-02-21T08:14:41.566Z,male_vraiment_flat_149.wav,1,True,5399,59,M,2,0.142086,-32.370244
26091964,66,1,2024-02-21T08:14:41.566Z,male_vraiment_flat_149.wav,1,True,5399,59,M,3,0.213129,33.896100
26091964,66,1,2024-02-21T08:14:41.566Z,male_vraiment_flat_149.wav,1,True,5399,59,M,4,0.284172,130.098177
26091964,66,1,2024-02-21T08:14:41.566Z,male_vraiment_flat_149.wav,1,True,5399,59,M,5,0.355215,-117.346579
26091964,66,1,2024-02-21T08:14:41.566Z,male_vraiment_flat_149.wav,1,True,5399,59,M,6,0.426259,65.375118
26091964,67,1,2024-02-21T08:14:41.566Z,male_vraiment_flat_106.wav,0,True,2063,59,M,0,0.000000,13.442505
26091964,67,1,2024-02-21T08:14:41.566Z,male_vraiment_flat_106.wav,0,True,2063,59,M,1,0.071043,67.880832
26091964,67,1,2024-02-21T08:14:41.566Z,male_vraiment_flat_106.wav,0,True,2063,59,M,2,0.142086,105.927648
26091964,67,1,2024-02-21T08:14:41.566Z,male_vraiment_flat_106.wav,0,True,2063,59,M,3,0.213129,65.041696
26091964,67,1,2024-02-21T08:14:41.566Z,male_vraiment_flat_106.wav,0,True,2063,59,M,4,0.284172,-59.466654
26091964,67,1,2024-02-21T08:14:41.566Z,male_vraiment_flat_106.wav,0,True,2063,59,M,5,0.355215,55.710963
26091964,67,1,2024-02-21T08:14:41.566Z,male_vraiment_flat_106.wav,0,True,2063,59,M,6,0.426259,127.964857
26091964,67,1,2024-02-21T08:14:41.566Z,male_vraiment_flat_54.wav,1,False,2063,59,M,0,0.000000,117.470857
26091964,67,1,2024-02-21T08:14:41.566Z,male_vraiment_flat_54.wav,1,False,2063,59,M,1,0.071043,-78.886002
26091964,67,1,2024-02-21T08:14:41.566Z,male_vraiment_flat_54.wav,1,False,2063,59,M,2,0.142086,14.587652
26091964,67,1,2024-02-21T08:14:41.566Z,male_vraiment_flat_54.wav,1,False,2063,59,M,3,0.213129,69.368451
26091964,67,1,2024-02-21T08:14:41.566Z,male_vraiment_flat_54.wav,1,False,2063,59,M,4,0.284172,64.657305
26091964,67,1,2024-02-21T08:14:41.566Z,male_vraiment_flat_54.wav,1,False,2063,59,M,5,0.355215,7.845227
26091964,67,1,2024-02-21T08:14:41.566Z,male_vraiment_flat_54.wav,1,False,2063,59,M,6,0.426259,-11.003085
26091964,68,1,2024-02-21T08:14:41.566Z,male_vraiment_flat_118.wav,0,True,505,59,M,0,0.000000,126.187147
26091964,68,1,2024-02-21T08:14:41.566Z,male_vraiment_flat_118.wav,0,True,505,59,M,1,0.071043,44.969184
26091964,68,1,2024-02-21T08:14:41.566Z,male_vraiment_flat_118.wav,0,True,505,59,M,2,0.142086,-108.017243
26091964,68,1,2024-02-21T08:14:41.566Z,male_vraiment_flat_118.wav,0,True,505,59,M,3,0.213129,6.480803
26091964,68,1,2024-02-21T08:14:41.566Z,male_vraiment_flat_118.wav,0,True,505,59,M,4,0.284172,89.811831
26091964,68,1,2024-02-21T08:14:41.566Z,male_vraiment_flat_118.wav,0,True,505,59,M,5,0.355215,60.034007
26091964,68,1,2024-02-21T08:14:41.566Z,male_vraiment_flat_118.wav,0,True,505,59,M,6,0.426259,63.317816
