subj,trial,block,date,stim,stim_order,response,rt,age,sex,param_index,segment_time,pitch
06121953,0,0,2024-03-02T11:21:49.353Z,male_vraiment_flat_127.wav,0,True,5077,70,M,0,0.000000,143.598511
06121953,0,0,2024-03-02T11:21:49.353Z,male_vraiment_flat_127.wav,0,True,5077,70,M,1,0.071043,23.645136
06121953,0,0,2024-03-02T11:21:49.353Z,male_vraiment_flat_127.wav,0,True,5077,70,M,2,0.142086,-118.740497
06121953,0,0,2024-03-02T11:21:49.353Z,male_vraiment_flat_127.wav,0,True,5077,70,M,3,0.213129,-109.046436
06121953,0,0,2024-03-02T11:21:49.353Z,male_vraiment_flat_127.wav,0,True,5077,70,M,4,0.284172,66.022521
06121953,0,0,2024-03-02T11:21:49.353Z,male_vraiment_flat_127.wav,0,True,5077,70,M,5,0.355215,-13.059175
06121953,0,0,2024-03-02T11:21:49.353Z,male_vraiment_flat_127.wav,0,True,5077,70,M,6,0.426259,22.700660
06121953,0,0,2024-03-02T11:21:49.353Z,male_vraiment_flat_190.wav,1,False,5077,70,M,0,0.000000,-135.472764
06121953,0,0,2024-03-02T11:21:49.353Z,male_vraiment_flat_190.wav,1,False,5077,70,M,1,0.071043,-16.311165
06121953,0,0,2024-03-02T11:21:49.353Z,male_vraiment_flat_190.wav,1,False,5077,70,M,2,0.142086,-108.166759
06121953,0,0,2024-03-02T11:21:49.353Z,male_vraiment_flat_190.wav,1,False,5077,70,M,3,0.213129,-73.778410
06121953,0,0,2024-03-02T11:21:49.353Z,male_vraiment_flat_190.wav,1,False,5077,70,M,4,0.284172,-109.839915
06121953,0,0,2024-03-02T11:21:49.353Z,male_vraiment_flat_190.wav,1,False,5077,70,M,5,0.355215,2.895785
06121953,0,0,2024-03-02T11:21:49.353Z,male_vraiment_flat_190.wav,1,False,5077,70,M,6,0.426259,14.515822
06121953,1,0,2024-03-02T11:21:49.353Z,male_vraiment_flat_84.wav,0,True,3018,70,M,0,0.000000,79.222174
06121953,1,0,2024-03-02T11:21:49.353Z,male_vraiment_flat_84.wav,0,True,3018,70,M,1,0.071043,61.816109
06121953,1,0,2024-03-02T11:21:49.353Z,male_vraiment_flat_84.wav,0,True,3018,70,M,2,0.142086,-111.712238
06121953,1,0,2024-03-02T11:21:49.353Z,male_vraiment_flat_84.wav,0,True,3018,70,M,3,0.213129,96.584947
06121953,1,0,2024-03-02T11:21:49.353Z,male_vraiment_flat_84.wav,0,True,3018,70,M,4,0.284172,-11.292098
06121953,1,0,2024-03-02T11:21:49.353Z,male_vraiment_flat_84.wav,0,True,3018,70,M,5,0.355215,57.720124
06121953,1,0,2024-03-02T11:21:49.353Z,male_vraiment_flat_84.wav,0,True,3018,70,M,6,0.426259,-122.021307
06121953,1,0,2024-03-02T11:21:49.353Z,male_vraiment_flat_12.wav,1,False,3018,70,M,0,0.000000,-11.936919
06121953,1,0,2024-03-02T11:21:49.353Z,male_vraiment_flat_12.wav,1,False,3018,70,M,1,0.071043,-51.249998
06121953,1,0,2024-03-02T11:21:49.353Z,male_vraiment_flat_12.wav,1,False,3018,70,M,2,0.142086,42.322915
06121953,1,0,2024-03-02T11:21:49.353Z,male_vraiment_flat_12.wav,1,False,3018,70,M,3,0.213129,-19.839410
06121953,1,0,2024-03-02T11:21:49.353Z,male_vraiment_flat_12.wav,1,False,3018,70,M,4,0.284172,46.127041
06121953,1,0,2024-03-02T11:21:49.353Z,male_vraiment_flat_12.wav,1,False,3018,70,M,5,0.355215,34.596861
06121953,1,0,2024-03-02T11:21:49.353Z,male_vraiment_flat_12.wav,1,False,3018,70,M,6,0.426259,143.594573
06121953,2,0,2024-03-02T11:21:49.353Z,male_vraiment_flat_51.wav,0,True,1975,70,M,0,0.000000,130.517111
06121953,2,0,2024-03-02T11:21:49.353Z,male_vraiment_flat_51.wav,0,True,1975,70,M,1,0.071043,138.869679
06121953,2,0,2024-03-02T11:21:49.353Z,male_vraiment_flat_51.wav,0,True,1975,70,M,2,0.142086,-34.276776
06121953,2,0,2024-03-02T11:21:49.353Z,male_vraiment_flat_51.wav,0,True,1975,70,M,3,0.213129,76.935346
06121953,2,0,2024-03-02T11:21:49.353Z,male_vraiment_flat_51.wav,0,True,1975,70,M,4,0.284172,-118.523911
06121953,2,0,2024-03-02T11:21:49.353Z,male_vraiment_flat_51.wav,0,True,1975,70,M,5,0.355215,-103.328524
06121953,2,0,2024-03-02T11:21:49.353Z,male_vraiment_flat_51.wav,0,True,1975,70,M,6,0.426259,-14.442096
06121953,2,0,2024-03-02T11:21:49.353Z,male_vraiment_flat_157.wav,1,False,1975,70,M,0,0.000000,20.473057
06121953,2,0,2024-03-02T11:21:49.353Z,male_vraiment_flat_157.wav,1,False,1975,70,M,1,0.071043,-103.427341
06121953,2,0,2024-03-02T11:21:49.353Z,male_vraiment_flat_157.wav,1,False,1975,70,M,2,0.142086,-58.670290
06121953,2,0,2024-03-02T11:21:49.353Z,male_vraiment_flat_157.wav,1,False,1975,70,M,3,0.213129,-88.181786
06121953,2,0,2024-03-02T11:21:49.353Z,male_vraiment_flat_157.wav,1,False,1975,70,M,4,0.284172,-145.892431
06121953,2,0,2024-03-02T11:21:49.353Z,male_vraiment_flat_157.wav,1,False,1975,70,M,5,0.355215,-121.197130
06121953,2,0,2024-03-02T11:21:49.353Z,male_vraiment_flat_157.wav,1,False,1975,70,M,6,0.426259,3.215116
06121953,3,0,2024-03-02T11:21:49.353Z,male_vraiment_flat_20.wav,0,True,1892,70,M,0,0.000000,-58.370476
06121953,3,0,2024-03-02T11:21:49.353Z,male_vraiment_flat_20.wav,0,True,1892,70,M,1,0.071043,112.073529
06121953,3,0,2024-03-02T11:21:49.353Z,male_vraiment_flat_20.wav,0,True,1892,70,M,2,0.142086,29.472628
06121953,3,0,2024-03-02T11:21:49.353Z,male_vraiment_flat_20.wav,0,True,1892,70,M,3,0.213129,-22.374222
06121953,3,0,2024-03-02T11:21:49.353Z,male_vraiment_flat_20.wav,0,True,1892,70,M,4,0.284172,-146.515998
06121953,3,0,2024-03-02T11:21:49.353Z,male_vraiment_flat_20.wav,0,True,1892,70,M,5,0.355215,47.280720
06121953,3,0,2024-03-02T11:21:49.353Z,male_vraiment_flat_20.wav,0,True,1892,70,M,6,0.426259,140.553925
06121953,3,0,2024-03-02T11:21:49.353Z,male_vraiment_flat_44.wav,1,False,1892,70,M,0,0.000000,-41.207511
06121953,3,0,2024-03-02T11:21:49.353Z,male_vraiment_flat_44.wav,1,False,1892,70,M,1,0.071043,-36.343841
06121953,3,0,2024-03-02T11:21:49.353Z,male_vraiment_flat_44.wav,1,False,1892,70,M,2,0.142086,111.477084
06121953,3,0,2024-03-02T11:21:49.353Z,male_vraiment_flat_44.wav,1,False,1892,70,M,3,0.213129,5.942406
06121953,3,0,2024-03-02T11:21:49.353Z,male_vraiment_flat_44.wav,1,False,1892,70,M,4,0.284172,108.539673
06121953,3,0,2024-03-02T11:21:49.353Z,male_vraiment_flat_44.wav,1,False,1892,70,M,5,0.355215,-120.732661
06121953,3,0,2024-03-02T11:21:49.353Z,male_vraiment_flat_44.wav,1,False,1892,70,M,6,0.426259,-22.824839
06121953,4,0,2024-03-02T11:21:49.353Z,male_vraiment_flat_177.wav,0,True,2159,70,M,0,0.000000,16.306046
06121953,4,0,2024-03-02T11:21:49.353Z,male_vraiment_flat_177.wav,0,True,2159,70,M,1,0.071043,49.193464
06121953,4,0,2024-03-02T11:21:49.353Z,male_vraiment_flat_177.wav,0,True,2159,70,M,2,0.142086,-57.450827
06121953,4,0,2024-03-02T11:21:49.353Z,male_vraiment_flat_177.wav,0,True,2159,70,M,3,0.213129,-71.200742
06121953,4,0,2024-03-02T11:21:49.353Z,male_vraiment_flat_177.wav,0,True,2159,70,M,4,0.284172,75.759547
06121953,4,0,2024-03-02T11:21:49.353Z,male_vraiment_flat_177.wav,0,True,2159,70,M,5,0.355215,-147.097868
06121953,4,0,2024-03-02T11:21:49.353Z,male_vraiment_flat_177.wav,0,True,2159,70,M,6,0.426259,-23.614561
06121953,4,0,2024-03-02T11:21:49.353Z,male_vraiment_flat_145.wav,1,False,2159,70,M,0,0.000000,-57.363512
06121953,4,0,2024-03-02T11:21:49.353Z,male_vraiment_flat_145.wav,1,False,2159,70,M,1,0.071043,98.212837
06121953,4,0,2024-03-02T11:21:49.353Z,male_vraiment_flat_145.wav,1,False,2159,70,M,2,0.142086,141.769894
06121953,4,0,2024-03-02T11:21:49.353Z,male_vraiment_flat_145.wav,1,False,2159,70,M,3,0.213129,137.732142
06121953,4,0,2024-03-02T11:21:49.353Z,male_vraiment_flat_145.wav,1,False,2159,70,M,4,0.284172,20.834317
06121953,4,0,2024-03-02T11:21:49.353Z,male_vraiment_flat_145.wav,1,False,2159,70,M,5,0.355215,-134.972350
06121953,4,0,2024-03-02T11:21:49.353Z,male_vraiment_flat_145.wav,1,False,2159,70,M,6,0.426259,-28.162434
06121953,5,0,2024-03-02T11:21:49.353Z,male_vraiment_flat_23.wav,0,True,1322,70,M,0,0.000000,27.345676
06121953,5,0,2024-03-02T11:21:49.353Z,male_vraiment_flat_23.wav,0,True,1322,70,M,1,0.071043,118.378449
06121953,5,0,2024-03-02T11:21:49.353Z,male_vraiment_flat_23.wav,0,True,1322,70,M,2,0.142086,35.467907
06121953,5,0,2024-03-02T11:21:49.353Z,male_vraiment_flat_23.wav,0,True,1322,70,M,3,0.213129,-5.979973
06121953,5,0,2024-03-02T11:21:49.353Z,male_vraiment_flat_23.wav,0,True,1322,70,M,4,0.284172,18.578162
06121953,5,0,2024-03-02T11:21:49.353Z,male_vraiment_flat_23.wav,0,True,1322,70,M,5,0.355215,-9.540782
06121953,5,0,2024-03-02T11:21:49.353Z,male_vraiment_flat_23.wav,0,True,1322,70,M,6,0.426259,-13.092534
06121953,5,0,2024-03-02T11:21:49.353Z,male_vraiment_flat_8.wav,1,False,1322,70,M,0,0.000000,88.027847
06121953,5,0,2024-03-02T11:21:49.353Z,male_vraiment_flat_8.wav,1,False,1322,70,M,1,0.071043,-108.976227
06121953,5,0,2024-03-02T11:21:49.353Z,male_vraiment_flat_8.wav,1,False,1322,70,M,2,0.142086,36.591048
06121953,5,0,2024-03-02T11:21:49.353Z,male_vraiment_flat_8.wav,1,False,1322,70,M,3,0.213129,7.260113
06121953,5,0,2024-03-02T11:21:49.353Z,male_vraiment_flat_8.wav,1,False,1322,70,M,4,0.284172,-133.690195
06121953,5,0,2024-03-02T11:21:49.353Z,male_vraiment_flat_8.wav,1,False,1322,70,M,5,0.355215,9.464811
06121953,5,0,2024-03-02T11:21:49.353Z,male_vraiment_flat_8.wav,1,False,1322,70,M,6,0.426259,-67.780032
06121953,6,0,2024-03-02T11:21:49.353Z,male_vraiment_flat_103.wav,0,False,2968,70,M,0,0.000000,107.674069
06121953,6,0,2024-03-02T11:21:49.353Z,male_vraiment_flat_103.wav,0,False,2968,70,M,1,0.071043,149.413476
06121953,6,0,2024-03-02T11:21:49.353Z,male_vraiment_flat_103.wav,0,False,2968,70,M,2,0.142086,-1.049319
06121953,6,0,2024-03-02T11:21:49.353Z,male_vraiment_flat_103.wav,0,False,2968,70,M,3,0.213129,-7.353867
06121953,6,0,2024-03-02T11:21:49.353Z,male_vraiment_flat_103.wav,0,False,2968,70,M,4,0.284172,-2.169492
06121953,6,0,2024-03-02T11:21:49.353Z,male_vraiment_flat_103.wav,0,False,2968,70,M,5,0.355215,-94.854916
06121953,6,0,2024-03-02T11:21:49.353Z,male_vraiment_flat_103.wav,0,False,2968,70,M,6,0.426259,119.487430
06121953,6,0,2024-03-02T11:21:49.353Z,male_vraiment_flat_106.wav,1,True,2968,70,M,0,0.000000,13.442505
06121953,6,0,2024-03-02T11:21:49.353Z,male_vraiment_flat_106.wav,1,True,2968,70,M,1,0.071043,67.880832
06121953,6,0,2024-03-02T11:21:49.353Z,male_vraiment_flat_106.wav,1,True,2968,70,M,2,0.142086,105.927648
06121953,6,0,2024-03-02T11:21:49.353Z,male_vraiment_flat_106.wav,1,True,2968,70,M,3,0.213129,65.041696
06121953,6,0,2024-03-02T11:21:49.353Z,male_vraiment_flat_106.wav,1,True,2968,70,M,4,0.284172,-59.466654
06121953,6,0,2024-03-02T11:21:49.353Z,male_vraiment_flat_106.wav,1,True,2968,70,M,5,0.355215,55.710963
06121953,6,0,2024-03-02T11:21:49.353Z,male_vraiment_flat_106.wav,1,True,2968,70,M,6,0.426259,127.964857
06121953,7,0,2024-03-02T11:21:49.353Z,male_vraiment_flat_101.wav,0,False,1307,70,M,0,0.000000,69.316576
06121953,7,0,2024-03-02T11:21:49.353Z,male_vraiment_flat_101.wav,0,False,1307,70,M,1,0.071043,-9.395360
06121953,7,0,2024-03-02T11:21:49.353Z,male_vraiment_flat_101.wav,0,False,1307,70,M,2,0.142086,-16.210020
06121953,7,0,2024-03-02T11:21:49.353Z,male_vraiment_flat_101.wav,0,False,1307,70,M,3,0.213129,5.282415
06121953,7,0,2024-03-02T11:21:49.353Z,male_vraiment_flat_101.wav,0,False,1307,70,M,4,0.284172,-92.031474
06121953,7,0,2024-03-02T11:21:49.353Z,male_vraiment_flat_101.wav,0,False,1307,70,M,5,0.355215,-71.382142
06121953,7,0,2024-03-02T11:21:49.353Z,male_vraiment_flat_101.wav,0,False,1307,70,M,6,0.426259,-144.168558
06121953,7,0,2024-03-02T11:21:49.353Z,male_vraiment_flat_197.wav,1,True,1307,70,M,0,0.000000,7.012988
06121953,7,0,2024-03-02T11:21:49.353Z,male_vraiment_flat_197.wav,1,True,1307,70,M,1,0.071043,64.551185
06121953,7,0,2024-03-02T11:21:49.353Z,male_vraiment_flat_197.wav,1,True,1307,70,M,2,0.142086,-65.392523
06121953,7,0,2024-03-02T11:21:49.353Z,male_vraiment_flat_197.wav,1,True,1307,70,M,3,0.213129,18.180118
06121953,7,0,2024-03-02T11:21:49.353Z,male_vraiment_flat_197.wav,1,True,1307,70,M,4,0.284172,-30.775220
06121953,7,0,2024-03-02T11:21:49.353Z,male_vraiment_flat_197.wav,1,True,1307,70,M,5,0.355215,95.802549
06121953,7,0,2024-03-02T11:21:49.353Z,male_vraiment_flat_197.wav,1,True,1307,70,M,6,0.426259,-129.373786
06121953,8,0,2024-03-02T11:21:49.353Z,male_vraiment_flat_156.wav,0,True,2233,70,M,0,0.000000,62.995907
06121953,8,0,2024-03-02T11:21:49.353Z,male_vraiment_flat_156.wav,0,True,2233,70,M,1,0.071043,-119.801161
06121953,8,0,2024-03-02T11:21:49.353Z,male_vraiment_flat_156.wav,0,True,2233,70,M,2,0.142086,-125.261471
06121953,8,0,2024-03-02T11:21:49.353Z,male_vraiment_flat_156.wav,0,True,2233,70,M,3,0.213129,110.918732
06121953,8,0,2024-03-02T11:21:49.353Z,male_vraiment_flat_156.wav,0,True,2233,70,M,4,0.284172,-27.635219
06121953,8,0,2024-03-02T11:21:49.353Z,male_vraiment_flat_156.wav,0,True,2233,70,M,5,0.355215,57.926930
06121953,8,0,2024-03-02T11:21:49.353Z,male_vraiment_flat_156.wav,0,True,2233,70,M,6,0.426259,-85.703842
06121953,8,0,2024-03-02T11:21:49.353Z,male_vraiment_flat_49.wav,1,False,2233,70,M,0,0.000000,-83.600042
06121953,8,0,2024-03-02T11:21:49.353Z,male_vraiment_flat_49.wav,1,False,2233,70,M,1,0.071043,-14.728623
06121953,8,0,2024-03-02T11:21:49.353Z,male_vraiment_flat_49.wav,1,False,2233,70,M,2,0.142086,25.142138
06121953,8,0,2024-03-02T11:21:49.353Z,male_vraiment_flat_49.wav,1,False,2233,70,M,3,0.213129,135.875151
06121953,8,0,2024-03-02T11:21:49.353Z,male_vraiment_flat_49.wav,1,False,2233,70,M,4,0.284172,60.117986
06121953,8,0,2024-03-02T11:21:49.353Z,male_vraiment_flat_49.wav,1,False,2233,70,M,5,0.355215,-135.086661
06121953,8,0,2024-03-02T11:21:49.353Z,male_vraiment_flat_49.wav,1,False,2233,70,M,6,0.426259,-32.809615
06121953,9,0,2024-03-02T11:21:49.353Z,male_vraiment_flat_92.wav,0,False,1446,70,M,0,0.000000,46.869845
06121953,9,0,2024-03-02T11:21:49.353Z,male_vraiment_flat_92.wav,0,False,1446,70,M,1,0.071043,-22.303854
06121953,9,0,2024-03-02T11:21:49.353Z,male_vraiment_flat_92.wav,0,False,1446,70,M,2,0.142086,54.218629
06121953,9,0,2024-03-02T11:21:49.353Z,male_vraiment_flat_92.wav,0,False,1446,70,M,3,0.213129,-37.706610
06121953,9,0,2024-03-02T11:21:49.353Z,male_vraiment_flat_92.wav,0,False,1446,70,M,4,0.284172,48.467677
06121953,9,0,2024-03-02T11:21:49.353Z,male_vraiment_flat_92.wav,0,False,1446,70,M,5,0.355215,-36.671620
06121953,9,0,2024-03-02T11:21:49.353Z,male_vraiment_flat_92.wav,0,False,1446,70,M,6,0.426259,-103.238186
06121953,9,0,2024-03-02T11:21:49.353Z,male_vraiment_flat_61.wav,1,True,1446,70,M,0,0.000000,-131.156457
06121953,9,0,2024-03-02T11:21:49.353Z,male_vraiment_flat_61.wav,1,True,1446,70,M,1,0.071043,-97.865916
06121953,9,0,2024-03-02T11:21:49.353Z,male_vraiment_flat_61.wav,1,True,1446,70,M,2,0.142086,61.528867
06121953,9,0,2024-03-02T11:21:49.353Z,male_vraiment_flat_61.wav,1,True,1446,70,M,3,0.213129,-10.532302
06121953,9,0,2024-03-02T11:21:49.353Z,male_vraiment_flat_61.wav,1,True,1446,70,M,4,0.284172,-59.471070
06121953,9,0,2024-03-02T11:21:49.353Z,male_vraiment_flat_61.wav,1,True,1446,70,M,5,0.355215,77.665776
06121953,9,0,2024-03-02T11:21:49.353Z,male_vraiment_flat_61.wav,1,True,1446,70,M,6,0.426259,-95.375701
06121953,10,0,2024-03-02T11:21:49.353Z,male_vraiment_flat_86.wav,0,False,3729,70,M,0,0.000000,85.260205
06121953,10,0,2024-03-02T11:21:49.353Z,male_vraiment_flat_86.wav,0,False,3729,70,M,1,0.071043,-4.684566
06121953,10,0,2024-03-02T11:21:49.353Z,male_vraiment_flat_86.wav,0,False,3729,70,M,2,0.142086,133.406345
06121953,10,0,2024-03-02T11:21:49.353Z,male_vraiment_flat_86.wav,0,False,3729,70,M,3,0.213129,110.454503
06121953,10,0,2024-03-02T11:21:49.353Z,male_vraiment_flat_86.wav,0,False,3729,70,M,4,0.284172,38.373367
06121953,10,0,2024-03-02T11:21:49.353Z,male_vraiment_flat_86.wav,0,False,3729,70,M,5,0.355215,75.992097
06121953,10,0,2024-03-02T11:21:49.353Z,male_vraiment_flat_86.wav,0,False,3729,70,M,6,0.426259,-87.651019
06121953,10,0,2024-03-02T11:21:49.353Z,male_vraiment_flat_141.wav,1,True,3729,70,M,0,0.000000,137.275446
06121953,10,0,2024-03-02T11:21:49.353Z,male_vraiment_flat_141.wav,1,True,3729,70,M,1,0.071043,43.805847
06121953,10,0,2024-03-02T11:21:49.353Z,male_vraiment_flat_141.wav,1,True,3729,70,M,2,0.142086,-129.344909
06121953,10,0,2024-03-02T11:21:49.353Z,male_vraiment_flat_141.wav,1,True,3729,70,M,3,0.213129,-123.799171
06121953,10,0,2024-03-02T11:21:49.353Z,male_vraiment_flat_141.wav,1,True,3729,70,M,4,0.284172,-103.584410
06121953,10,0,2024-03-02T11:21:49.353Z,male_vraiment_flat_141.wav,1,True,3729,70,M,5,0.355215,8.047141
06121953,10,0,2024-03-02T11:21:49.353Z,male_vraiment_flat_141.wav,1,True,3729,70,M,6,0.426259,-108.188423
06121953,11,0,2024-03-02T11:21:49.353Z,male_vraiment_flat_167.wav,0,False,1669,70,M,0,0.000000,-97.244470
06121953,11,0,2024-03-02T11:21:49.353Z,male_vraiment_flat_167.wav,0,False,1669,70,M,1,0.071043,55.519403
06121953,11,0,2024-03-02T11:21:49.353Z,male_vraiment_flat_167.wav,0,False,1669,70,M,2,0.142086,-125.285214
06121953,11,0,2024-03-02T11:21:49.353Z,male_vraiment_flat_167.wav,0,False,1669,70,M,3,0.213129,-87.843825
06121953,11,0,2024-03-02T11:21:49.353Z,male_vraiment_flat_167.wav,0,False,1669,70,M,4,0.284172,-127.750284
06121953,11,0,2024-03-02T11:21:49.353Z,male_vraiment_flat_167.wav,0,False,1669,70,M,5,0.355215,-93.631866
06121953,11,0,2024-03-02T11:21:49.353Z,male_vraiment_flat_167.wav,0,False,1669,70,M,6,0.426259,6.691804
06121953,11,0,2024-03-02T11:21:49.353Z,male_vraiment_flat_134.wav,1,True,1669,70,M,0,0.000000,85.320049
06121953,11,0,2024-03-02T11:21:49.353Z,male_vraiment_flat_134.wav,1,True,1669,70,M,1,0.071043,2.147850
06121953,11,0,2024-03-02T11:21:49.353Z,male_vraiment_flat_134.wav,1,True,1669,70,M,2,0.142086,140.355465
06121953,11,0,2024-03-02T11:21:49.353Z,male_vraiment_flat_134.wav,1,True,1669,70,M,3,0.213129,98.923070
06121953,11,0,2024-03-02T11:21:49.353Z,male_vraiment_flat_134.wav,1,True,1669,70,M,4,0.284172,20.388975
06121953,11,0,2024-03-02T11:21:49.353Z,male_vraiment_flat_134.wav,1,True,1669,70,M,5,0.355215,-4.239426
06121953,11,0,2024-03-02T11:21:49.353Z,male_vraiment_flat_134.wav,1,True,1669,70,M,6,0.426259,83.444299
06121953,12,0,2024-03-02T11:21:49.353Z,male_vraiment_flat_183.wav,0,True,2066,70,M,0,0.000000,102.527130
06121953,12,0,2024-03-02T11:21:49.353Z,male_vraiment_flat_183.wav,0,True,2066,70,M,1,0.071043,114.037020
06121953,12,0,2024-03-02T11:21:49.353Z,male_vraiment_flat_183.wav,0,True,2066,70,M,2,0.142086,-45.723055
06121953,12,0,2024-03-02T11:21:49.353Z,male_vraiment_flat_183.wav,0,True,2066,70,M,3,0.213129,-109.210749
06121953,12,0,2024-03-02T11:21:49.353Z,male_vraiment_flat_183.wav,0,True,2066,70,M,4,0.284172,-29.266312
06121953,12,0,2024-03-02T11:21:49.353Z,male_vraiment_flat_183.wav,0,True,2066,70,M,5,0.355215,-77.798514
06121953,12,0,2024-03-02T11:21:49.353Z,male_vraiment_flat_183.wav,0,True,2066,70,M,6,0.426259,-133.179439
06121953,12,0,2024-03-02T11:21:49.353Z,male_vraiment_flat_90.wav,1,False,2066,70,M,0,0.000000,39.615876
06121953,12,0,2024-03-02T11:21:49.353Z,male_vraiment_flat_90.wav,1,False,2066,70,M,1,0.071043,-130.464689
06121953,12,0,2024-03-02T11:21:49.353Z,male_vraiment_flat_90.wav,1,False,2066,70,M,2,0.142086,46.838016
06121953,12,0,2024-03-02T11:21:49.353Z,male_vraiment_flat_90.wav,1,False,2066,70,M,3,0.213129,104.861302
06121953,12,0,2024-03-02T11:21:49.353Z,male_vraiment_flat_90.wav,1,False,2066,70,M,4,0.284172,-102.459680
06121953,12,0,2024-03-02T11:21:49.353Z,male_vraiment_flat_90.wav,1,False,2066,70,M,5,0.355215,-91.275011
06121953,12,0,2024-03-02T11:21:49.353Z,male_vraiment_flat_90.wav,1,False,2066,70,M,6,0.426259,45.823426
06121953,13,0,2024-03-02T11:21:49.353Z,male_vraiment_flat_181.wav,0,True,869,70,M,0,0.000000,87.984579
06121953,13,0,2024-03-02T11:21:49.353Z,male_vraiment_flat_181.wav,0,True,869,70,M,1,0.071043,-52.749156
06121953,13,0,2024-03-02T11:21:49.353Z,male_vraiment_flat_181.wav,0,True,869,70,M,2,0.142086,-81.744540
06121953,13,0,2024-03-02T11:21:49.353Z,male_vraiment_flat_181.wav,0,True,869,70,M,3,0.213129,-103.539742
06121953,13,0,2024-03-02T11:21:49.353Z,male_vraiment_flat_181.wav,0,True,869,70,M,4,0.284172,51.143910
06121953,13,0,2024-03-02T11:21:49.353Z,male_vraiment_flat_181.wav,0,True,869,70,M,5,0.355215,89.293467
06121953,13,0,2024-03-02T11:21:49.353Z,male_vraiment_flat_181.wav,0,True,869,70,M,6,0.426259,-33.289981
06121953,13,0,2024-03-02T11:21:49.353Z,male_vraiment_flat_98.wav,1,False,869,70,M,0,0.000000,102.170357
06121953,13,0,2024-03-02T11:21:49.353Z,male_vraiment_flat_98.wav,1,False,869,70,M,1,0.071043,20.715456
06121953,13,0,2024-03-02T11:21:49.353Z,male_vraiment_flat_98.wav,1,False,869,70,M,2,0.142086,81.972821
06121953,13,0,2024-03-02T11:21:49.353Z,male_vraiment_flat_98.wav,1,False,869,70,M,3,0.213129,-125.018297
06121953,13,0,2024-03-02T11:21:49.353Z,male_vraiment_flat_98.wav,1,False,869,70,M,4,0.284172,103.374214
06121953,13,0,2024-03-02T11:21:49.353Z,male_vraiment_flat_98.wav,1,False,869,70,M,5,0.355215,-81.704677
06121953,13,0,2024-03-02T11:21:49.353Z,male_vraiment_flat_98.wav,1,False,869,70,M,6,0.426259,85.109238
06121953,14,0,2024-03-02T11:21:49.353Z,male_vraiment_flat_64.wav,0,True,880,70,M,0,0.000000,113.461811
06121953,14,0,2024-03-02T11:21:49.353Z,male_vraiment_flat_64.wav,0,True,880,70,M,1,0.071043,60.375974
06121953,14,0,2024-03-02T11:21:49.353Z,male_vraiment_flat_64.wav,0,True,880,70,M,2,0.142086,-103.339599
06121953,14,0,2024-03-02T11:21:49.353Z,male_vraiment_flat_64.wav,0,True,880,70,M,3,0.213129,103.179307
06121953,14,0,2024-03-02T11:21:49.353Z,male_vraiment_flat_64.wav,0,True,880,70,M,4,0.284172,81.101135
06121953,14,0,2024-03-02T11:21:49.353Z,male_vraiment_flat_64.wav,0,True,880,70,M,5,0.355215,-3.861127
06121953,14,0,2024-03-02T11:21:49.353Z,male_vraiment_flat_64.wav,0,True,880,70,M,6,0.426259,-77.158959
06121953,14,0,2024-03-02T11:21:49.353Z,male_vraiment_flat_93.wav,1,False,880,70,M,0,0.000000,89.760217
06121953,14,0,2024-03-02T11:21:49.353Z,male_vraiment_flat_93.wav,1,False,880,70,M,1,0.071043,18.591855
06121953,14,0,2024-03-02T11:21:49.353Z,male_vraiment_flat_93.wav,1,False,880,70,M,2,0.142086,63.582537
06121953,14,0,2024-03-02T11:21:49.353Z,male_vraiment_flat_93.wav,1,False,880,70,M,3,0.213129,147.491611
06121953,14,0,2024-03-02T11:21:49.353Z,male_vraiment_flat_93.wav,1,False,880,70,M,4,0.284172,-113.128196
06121953,14,0,2024-03-02T11:21:49.353Z,male_vraiment_flat_93.wav,1,False,880,70,M,5,0.355215,12.197118
06121953,14,0,2024-03-02T11:21:49.353Z,male_vraiment_flat_93.wav,1,False,880,70,M,6,0.426259,-36.730637
06121953,15,0,2024-03-02T11:21:49.353Z,male_vraiment_flat_185.wav,0,True,856,70,M,0,0.000000,7.537788
06121953,15,0,2024-03-02T11:21:49.353Z,male_vraiment_flat_185.wav,0,True,856,70,M,1,0.071043,138.761382
06121953,15,0,2024-03-02T11:21:49.353Z,male_vraiment_flat_185.wav,0,True,856,70,M,2,0.142086,88.970452
06121953,15,0,2024-03-02T11:21:49.353Z,male_vraiment_flat_185.wav,0,True,856,70,M,3,0.213129,-106.980409
06121953,15,0,2024-03-02T11:21:49.353Z,male_vraiment_flat_185.wav,0,True,856,70,M,4,0.284172,-72.334155
06121953,15,0,2024-03-02T11:21:49.353Z,male_vraiment_flat_185.wav,0,True,856,70,M,5,0.355215,87.356426
06121953,15,0,2024-03-02T11:21:49.353Z,male_vraiment_flat_185.wav,0,True,856,70,M,6,0.426259,90.917936
06121953,15,0,2024-03-02T11:21:49.353Z,male_vraiment_flat_21.wav,1,False,856,70,M,0,0.000000,84.422922
06121953,15,0,2024-03-02T11:21:49.353Z,male_vraiment_flat_21.wav,1,False,856,70,M,1,0.071043,34.734306
06121953,15,0,2024-03-02T11:21:49.353Z,male_vraiment_flat_21.wav,1,False,856,70,M,2,0.142086,84.348012
06121953,15,0,2024-03-02T11:21:49.353Z,male_vraiment_flat_21.wav,1,False,856,70,M,3,0.213129,-112.005491
06121953,15,0,2024-03-02T11:21:49.353Z,male_vraiment_flat_21.wav,1,False,856,70,M,4,0.284172,147.407394
06121953,15,0,2024-03-02T11:21:49.353Z,male_vraiment_flat_21.wav,1,False,856,70,M,5,0.355215,-6.622355
06121953,15,0,2024-03-02T11:21:49.353Z,male_vraiment_flat_21.wav,1,False,856,70,M,6,0.426259,125.674103
06121953,16,0,2024-03-02T11:21:49.353Z,male_vraiment_flat_88.wav,0,True,818,70,M,0,0.000000,-104.432443
06121953,16,0,2024-03-02T11:21:49.353Z,male_vraiment_flat_88.wav,0,True,818,70,M,1,0.071043,71.901933
06121953,16,0,2024-03-02T11:21:49.353Z,male_vraiment_flat_88.wav,0,True,818,70,M,2,0.142086,62.017491
06121953,16,0,2024-03-02T11:21:49.353Z,male_vraiment_flat_88.wav,0,True,818,70,M,3,0.213129,-148.109936
06121953,16,0,2024-03-02T11:21:49.353Z,male_vraiment_flat_88.wav,0,True,818,70,M,4,0.284172,21.087169
06121953,16,0,2024-03-02T11:21:49.353Z,male_vraiment_flat_88.wav,0,True,818,70,M,5,0.355215,98.793360
06121953,16,0,2024-03-02T11:21:49.353Z,male_vraiment_flat_88.wav,0,True,818,70,M,6,0.426259,84.960800
06121953,16,0,2024-03-02T11:21:49.353Z,male_vraiment_flat_62.wav,1,False,818,70,M,0,0.000000,-118.782832
06121953,16,0,2024-03-02T11:21:49.353Z,male_vraiment_flat_62.wav,1,False,818,70,M,1,0.071043,-35.995173
06121953,16,0,2024-03-02T11:21:49.353Z,male_vraiment_flat_62.wav,1,False,818,70,M,2,0.142086,21.697311
06121953,16,0,2024-03-02T11:21:49.353Z,male_vraiment_flat_62.wav,1,False,818,70,M,3,0.213129,22.125919
06121953,16,0,2024-03-02T11:21:49.353Z,male_vraiment_flat_62.wav,1,False,818,70,M,4,0.284172,-42.995885
06121953,16,0,2024-03-02T11:21:49.353Z,male_vraiment_flat_62.wav,1,False,818,70,M,5,0.355215,-84.376770
06121953,16,0,2024-03-02T11:21:49.353Z,male_vraiment_flat_62.wav,1,False,818,70,M,6,0.426259,-12.230862
06121953,17,0,2024-03-02T11:21:49.353Z,male_vraiment_flat_142.wav,0,False,1321,70,M,0,0.000000,129.881009
06121953,17,0,2024-03-02T11:21:49.353Z,male_vraiment_flat_142.wav,0,False,1321,70,M,1,0.071043,116.596688
06121953,17,0,2024-03-02T11:21:49.353Z,male_vraiment_flat_142.wav,0,False,1321,70,M,2,0.142086,48.203333
06121953,17,0,2024-03-02T11:21:49.353Z,male_vraiment_flat_142.wav,0,False,1321,70,M,3,0.213129,100.883154
06121953,17,0,2024-03-02T11:21:49.353Z,male_vraiment_flat_142.wav,0,False,1321,70,M,4,0.284172,-39.625904
06121953,17,0,2024-03-02T11:21:49.353Z,male_vraiment_flat_142.wav,0,False,1321,70,M,5,0.355215,-141.802649
06121953,17,0,2024-03-02T11:21:49.353Z,male_vraiment_flat_142.wav,0,False,1321,70,M,6,0.426259,58.691582
06121953,17,0,2024-03-02T11:21:49.353Z,male_vraiment_flat_4.wav,1,True,1321,70,M,0,0.000000,98.226066
06121953,17,0,2024-03-02T11:21:49.353Z,male_vraiment_flat_4.wav,1,True,1321,70,M,1,0.071043,119.322928
06121953,17,0,2024-03-02T11:21:49.353Z,male_vraiment_flat_4.wav,1,True,1321,70,M,2,0.142086,-139.339853
06121953,17,0,2024-03-02T11:21:49.353Z,male_vraiment_flat_4.wav,1,True,1321,70,M,3,0.213129,-46.932317
06121953,17,0,2024-03-02T11:21:49.353Z,male_vraiment_flat_4.wav,1,True,1321,70,M,4,0.284172,-13.288809
06121953,17,0,2024-03-02T11:21:49.353Z,male_vraiment_flat_4.wav,1,True,1321,70,M,5,0.355215,94.861826
06121953,17,0,2024-03-02T11:21:49.353Z,male_vraiment_flat_4.wav,1,True,1321,70,M,6,0.426259,-84.397607
06121953,18,0,2024-03-02T11:21:49.353Z,male_vraiment_flat_176.wav,0,True,1108,70,M,0,0.000000,-0.886832
06121953,18,0,2024-03-02T11:21:49.353Z,male_vraiment_flat_176.wav,0,True,1108,70,M,1,0.071043,48.604994
06121953,18,0,2024-03-02T11:21:49.353Z,male_vraiment_flat_176.wav,0,True,1108,70,M,2,0.142086,33.352714
06121953,18,0,2024-03-02T11:21:49.353Z,male_vraiment_flat_176.wav,0,True,1108,70,M,3,0.213129,-55.356586
06121953,18,0,2024-03-02T11:21:49.353Z,male_vraiment_flat_176.wav,0,True,1108,70,M,4,0.284172,-13.903711
06121953,18,0,2024-03-02T11:21:49.353Z,male_vraiment_flat_176.wav,0,True,1108,70,M,5,0.355215,54.096530
06121953,18,0,2024-03-02T11:21:49.353Z,male_vraiment_flat_176.wav,0,True,1108,70,M,6,0.426259,-77.791606
06121953,18,0,2024-03-02T11:21:49.353Z,male_vraiment_flat_13.wav,1,False,1108,70,M,0,0.000000,-66.984077
06121953,18,0,2024-03-02T11:21:49.353Z,male_vraiment_flat_13.wav,1,False,1108,70,M,1,0.071043,5.429279
06121953,18,0,2024-03-02T11:21:49.353Z,male_vraiment_flat_13.wav,1,False,1108,70,M,2,0.142086,12.572717
06121953,18,0,2024-03-02T11:21:49.353Z,male_vraiment_flat_13.wav,1,False,1108,70,M,3,0.213129,-71.562953
06121953,18,0,2024-03-02T11:21:49.353Z,male_vraiment_flat_13.wav,1,False,1108,70,M,4,0.284172,-107.999901
06121953,18,0,2024-03-02T11:21:49.353Z,male_vraiment_flat_13.wav,1,False,1108,70,M,5,0.355215,86.606735
06121953,18,0,2024-03-02T11:21:49.353Z,male_vraiment_flat_13.wav,1,False,1108,70,M,6,0.426259,-82.122177
06121953,19,0,2024-03-02T11:21:49.353Z,male_vraiment_flat_198.wav,0,True,1167,70,M,0,0.000000,-103.630506
06121953,19,0,2024-03-02T11:21:49.353Z,male_vraiment_flat_198.wav,0,True,1167,70,M,1,0.071043,-84.165473
06121953,19,0,2024-03-02T11:21:49.353Z,male_vraiment_flat_198.wav,0,True,1167,70,M,2,0.142086,-14.577431
06121953,19,0,2024-03-02T11:21:49.353Z,male_vraiment_flat_198.wav,0,True,1167,70,M,3,0.213129,28.146235
06121953,19,0,2024-03-02T11:21:49.353Z,male_vraiment_flat_198.wav,0,True,1167,70,M,4,0.284172,-80.575165
06121953,19,0,2024-03-02T11:21:49.353Z,male_vraiment_flat_198.wav,0,True,1167,70,M,5,0.355215,-32.118902
06121953,19,0,2024-03-02T11:21:49.353Z,male_vraiment_flat_198.wav,0,True,1167,70,M,6,0.426259,78.303148
06121953,19,0,2024-03-02T11:21:49.353Z,male_vraiment_flat_161.wav,1,False,1167,70,M,0,0.000000,108.108554
06121953,19,0,2024-03-02T11:21:49.353Z,male_vraiment_flat_161.wav,1,False,1167,70,M,1,0.071043,47.804173
06121953,19,0,2024-03-02T11:21:49.353Z,male_vraiment_flat_161.wav,1,False,1167,70,M,2,0.142086,-38.721105
06121953,19,0,2024-03-02T11:21:49.353Z,male_vraiment_flat_161.wav,1,False,1167,70,M,3,0.213129,108.595174
06121953,19,0,2024-03-02T11:21:49.353Z,male_vraiment_flat_161.wav,1,False,1167,70,M,4,0.284172,94.751032
06121953,19,0,2024-03-02T11:21:49.353Z,male_vraiment_flat_161.wav,1,False,1167,70,M,5,0.355215,-22.399732
06121953,19,0,2024-03-02T11:21:49.353Z,male_vraiment_flat_161.wav,1,False,1167,70,M,6,0.426259,88.139884
06121953,20,0,2024-03-02T11:21:49.353Z,male_vraiment_flat_147.wav,0,False,1184,70,M,0,0.000000,-109.572708
06121953,20,0,2024-03-02T11:21:49.353Z,male_vraiment_flat_147.wav,0,False,1184,70,M,1,0.071043,-50.943910
06121953,20,0,2024-03-02T11:21:49.353Z,male_vraiment_flat_147.wav,0,False,1184,70,M,2,0.142086,145.950821
06121953,20,0,2024-03-02T11:21:49.353Z,male_vraiment_flat_147.wav,0,False,1184,70,M,3,0.213129,141.813801
06121953,20,0,2024-03-02T11:21:49.353Z,male_vraiment_flat_147.wav,0,False,1184,70,M,4,0.284172,53.597843
06121953,20,0,2024-03-02T11:21:49.353Z,male_vraiment_flat_147.wav,0,False,1184,70,M,5,0.355215,-21.310214
06121953,20,0,2024-03-02T11:21:49.353Z,male_vraiment_flat_147.wav,0,False,1184,70,M,6,0.426259,-94.477021
06121953,20,0,2024-03-02T11:21:49.353Z,male_vraiment_flat_16.wav,1,True,1184,70,M,0,0.000000,141.243943
06121953,20,0,2024-03-02T11:21:49.353Z,male_vraiment_flat_16.wav,1,True,1184,70,M,1,0.071043,-34.322435
06121953,20,0,2024-03-02T11:21:49.353Z,male_vraiment_flat_16.wav,1,True,1184,70,M,2,0.142086,10.018864
06121953,20,0,2024-03-02T11:21:49.353Z,male_vraiment_flat_16.wav,1,True,1184,70,M,3,0.213129,-24.066951
06121953,20,0,2024-03-02T11:21:49.353Z,male_vraiment_flat_16.wav,1,True,1184,70,M,4,0.284172,45.502655
06121953,20,0,2024-03-02T11:21:49.353Z,male_vraiment_flat_16.wav,1,True,1184,70,M,5,0.355215,107.276086
06121953,20,0,2024-03-02T11:21:49.353Z,male_vraiment_flat_16.wav,1,True,1184,70,M,6,0.426259,58.110380
06121953,21,0,2024-03-02T11:21:49.353Z,male_vraiment_flat_66.wav,0,True,1385,70,M,0,0.000000,96.429433
06121953,21,0,2024-03-02T11:21:49.353Z,male_vraiment_flat_66.wav,0,True,1385,70,M,1,0.071043,13.373052
06121953,21,0,2024-03-02T11:21:49.353Z,male_vraiment_flat_66.wav,0,True,1385,70,M,2,0.142086,112.602816
06121953,21,0,2024-03-02T11:21:49.353Z,male_vraiment_flat_66.wav,0,True,1385,70,M,3,0.213129,110.292573
06121953,21,0,2024-03-02T11:21:49.353Z,male_vraiment_flat_66.wav,0,True,1385,70,M,4,0.284172,-89.729138
06121953,21,0,2024-03-02T11:21:49.353Z,male_vraiment_flat_66.wav,0,True,1385,70,M,5,0.355215,-67.456514
06121953,21,0,2024-03-02T11:21:49.353Z,male_vraiment_flat_66.wav,0,True,1385,70,M,6,0.426259,79.997172
06121953,21,0,2024-03-02T11:21:49.353Z,male_vraiment_flat_126.wav,1,False,1385,70,M,0,0.000000,23.450520
06121953,21,0,2024-03-02T11:21:49.353Z,male_vraiment_flat_126.wav,1,False,1385,70,M,1,0.071043,102.584681
06121953,21,0,2024-03-02T11:21:49.353Z,male_vraiment_flat_126.wav,1,False,1385,70,M,2,0.142086,38.224300
06121953,21,0,2024-03-02T11:21:49.353Z,male_vraiment_flat_126.wav,1,False,1385,70,M,3,0.213129,-16.427695
06121953,21,0,2024-03-02T11:21:49.353Z,male_vraiment_flat_126.wav,1,False,1385,70,M,4,0.284172,7.421137
06121953,21,0,2024-03-02T11:21:49.353Z,male_vraiment_flat_126.wav,1,False,1385,70,M,5,0.355215,-9.369055
06121953,21,0,2024-03-02T11:21:49.353Z,male_vraiment_flat_126.wav,1,False,1385,70,M,6,0.426259,-89.176758
06121953,22,0,2024-03-02T11:21:49.353Z,male_vraiment_flat_29.wav,0,False,1506,70,M,0,0.000000,78.626852
06121953,22,0,2024-03-02T11:21:49.353Z,male_vraiment_flat_29.wav,0,False,1506,70,M,1,0.071043,124.163952
06121953,22,0,2024-03-02T11:21:49.353Z,male_vraiment_flat_29.wav,0,False,1506,70,M,2,0.142086,-62.289103
06121953,22,0,2024-03-02T11:21:49.353Z,male_vraiment_flat_29.wav,0,False,1506,70,M,3,0.213129,54.806982
06121953,22,0,2024-03-02T11:21:49.353Z,male_vraiment_flat_29.wav,0,False,1506,70,M,4,0.284172,75.809549
06121953,22,0,2024-03-02T11:21:49.353Z,male_vraiment_flat_29.wav,0,False,1506,70,M,5,0.355215,87.233703
06121953,22,0,2024-03-02T11:21:49.353Z,male_vraiment_flat_29.wav,0,False,1506,70,M,6,0.426259,-95.916715
06121953,22,0,2024-03-02T11:21:49.353Z,male_vraiment_flat_6.wav,1,True,1506,70,M,0,0.000000,99.637695
06121953,22,0,2024-03-02T11:21:49.353Z,male_vraiment_flat_6.wav,1,True,1506,70,M,1,0.071043,129.019395
06121953,22,0,2024-03-02T11:21:49.353Z,male_vraiment_flat_6.wav,1,True,1506,70,M,2,0.142086,85.352544
06121953,22,0,2024-03-02T11:21:49.353Z,male_vraiment_flat_6.wav,1,True,1506,70,M,3,0.213129,122.275637
06121953,22,0,2024-03-02T11:21:49.353Z,male_vraiment_flat_6.wav,1,True,1506,70,M,4,0.284172,45.838224
06121953,22,0,2024-03-02T11:21:49.353Z,male_vraiment_flat_6.wav,1,True,1506,70,M,5,0.355215,149.126562
06121953,22,0,2024-03-02T11:21:49.353Z,male_vraiment_flat_6.wav,1,True,1506,70,M,6,0.426259,9.632372
06121953,23,0,2024-03-02T11:21:49.353Z,male_vraiment_flat_104.wav,0,True,1128,70,M,0,0.000000,-70.174686
06121953,23,0,2024-03-02T11:21:49.353Z,male_vraiment_flat_104.wav,0,True,1128,70,M,1,0.071043,-64.753986
06121953,23,0,2024-03-02T11:21:49.353Z,male_vraiment_flat_104.wav,0,True,1128,70,M,2,0.142086,-116.293490
06121953,23,0,2024-03-02T11:21:49.353Z,male_vraiment_flat_104.wav,0,True,1128,70,M,3,0.213129,-63.059369
06121953,23,0,2024-03-02T11:21:49.353Z,male_vraiment_flat_104.wav,0,True,1128,70,M,4,0.284172,102.899256
06121953,23,0,2024-03-02T11:21:49.353Z,male_vraiment_flat_104.wav,0,True,1128,70,M,5,0.355215,-142.936640
06121953,23,0,2024-03-02T11:21:49.353Z,male_vraiment_flat_104.wav,0,True,1128,70,M,6,0.426259,-16.173865
06121953,23,0,2024-03-02T11:21:49.353Z,male_vraiment_flat_186.wav,1,False,1128,70,M,0,0.000000,-146.338275
06121953,23,0,2024-03-02T11:21:49.353Z,male_vraiment_flat_186.wav,1,False,1128,70,M,1,0.071043,17.632346
06121953,23,0,2024-03-02T11:21:49.353Z,male_vraiment_flat_186.wav,1,False,1128,70,M,2,0.142086,135.683559
06121953,23,0,2024-03-02T11:21:49.353Z,male_vraiment_flat_186.wav,1,False,1128,70,M,3,0.213129,133.054558
06121953,23,0,2024-03-02T11:21:49.353Z,male_vraiment_flat_186.wav,1,False,1128,70,M,4,0.284172,-31.983178
06121953,23,0,2024-03-02T11:21:49.353Z,male_vraiment_flat_186.wav,1,False,1128,70,M,5,0.355215,-117.937109
06121953,23,0,2024-03-02T11:21:49.353Z,male_vraiment_flat_186.wav,1,False,1128,70,M,6,0.426259,-78.681829
06121953,24,0,2024-03-02T11:21:49.353Z,male_vraiment_flat_9.wav,0,True,745,70,M,0,0.000000,85.332288
06121953,24,0,2024-03-02T11:21:49.353Z,male_vraiment_flat_9.wav,0,True,745,70,M,1,0.071043,-113.949520
06121953,24,0,2024-03-02T11:21:49.353Z,male_vraiment_flat_9.wav,0,True,745,70,M,2,0.142086,22.848070
06121953,24,0,2024-03-02T11:21:49.353Z,male_vraiment_flat_9.wav,0,True,745,70,M,3,0.213129,-135.528843
06121953,24,0,2024-03-02T11:21:49.353Z,male_vraiment_flat_9.wav,0,True,745,70,M,4,0.284172,76.460330
06121953,24,0,2024-03-02T11:21:49.353Z,male_vraiment_flat_9.wav,0,True,745,70,M,5,0.355215,72.455461
06121953,24,0,2024-03-02T11:21:49.353Z,male_vraiment_flat_9.wav,0,True,745,70,M,6,0.426259,-135.542556
06121953,24,0,2024-03-02T11:21:49.353Z,male_vraiment_flat_36.wav,1,False,745,70,M,0,0.000000,-33.837960
06121953,24,0,2024-03-02T11:21:49.353Z,male_vraiment_flat_36.wav,1,False,745,70,M,1,0.071043,102.134309
06121953,24,0,2024-03-02T11:21:49.353Z,male_vraiment_flat_36.wav,1,False,745,70,M,2,0.142086,100.949665
06121953,24,0,2024-03-02T11:21:49.353Z,male_vraiment_flat_36.wav,1,False,745,70,M,3,0.213129,77.352428
06121953,24,0,2024-03-02T11:21:49.353Z,male_vraiment_flat_36.wav,1,False,745,70,M,4,0.284172,-1.995321
06121953,24,0,2024-03-02T11:21:49.353Z,male_vraiment_flat_36.wav,1,False,745,70,M,5,0.355215,-13.382838
06121953,24,0,2024-03-02T11:21:49.353Z,male_vraiment_flat_36.wav,1,False,745,70,M,6,0.426259,-42.807835
06121953,25,0,2024-03-02T11:21:49.353Z,male_vraiment_flat_42.wav,0,True,1072,70,M,0,0.000000,-6.709342
06121953,25,0,2024-03-02T11:21:49.353Z,male_vraiment_flat_42.wav,0,True,1072,70,M,1,0.071043,35.704202
06121953,25,0,2024-03-02T11:21:49.353Z,male_vraiment_flat_42.wav,0,True,1072,70,M,2,0.142086,-71.421689
06121953,25,0,2024-03-02T11:21:49.353Z,male_vraiment_flat_42.wav,0,True,1072,70,M,3,0.213129,-126.906461
06121953,25,0,2024-03-02T11:21:49.353Z,male_vraiment_flat_42.wav,0,True,1072,70,M,4,0.284172,10.231121
06121953,25,0,2024-03-02T11:21:49.353Z,male_vraiment_flat_42.wav,0,True,1072,70,M,5,0.355215,128.933526
06121953,25,0,2024-03-02T11:21:49.353Z,male_vraiment_flat_42.wav,0,True,1072,70,M,6,0.426259,-76.727395
06121953,25,0,2024-03-02T11:21:49.353Z,male_vraiment_flat_124.wav,1,False,1072,70,M,0,0.000000,-7.963711
06121953,25,0,2024-03-02T11:21:49.353Z,male_vraiment_flat_124.wav,1,False,1072,70,M,1,0.071043,-56.081883
06121953,25,0,2024-03-02T11:21:49.353Z,male_vraiment_flat_124.wav,1,False,1072,70,M,2,0.142086,-78.115299
06121953,25,0,2024-03-02T11:21:49.353Z,male_vraiment_flat_124.wav,1,False,1072,70,M,3,0.213129,-24.811935
06121953,25,0,2024-03-02T11:21:49.353Z,male_vraiment_flat_124.wav,1,False,1072,70,M,4,0.284172,-9.003272
06121953,25,0,2024-03-02T11:21:49.353Z,male_vraiment_flat_124.wav,1,False,1072,70,M,5,0.355215,13.712214
06121953,25,0,2024-03-02T11:21:49.353Z,male_vraiment_flat_124.wav,1,False,1072,70,M,6,0.426259,140.048390
06121953,26,0,2024-03-02T11:21:49.353Z,male_vraiment_flat_70.wav,0,False,963,70,M,0,0.000000,-95.640606
06121953,26,0,2024-03-02T11:21:49.353Z,male_vraiment_flat_70.wav,0,False,963,70,M,1,0.071043,17.584667
06121953,26,0,2024-03-02T11:21:49.353Z,male_vraiment_flat_70.wav,0,False,963,70,M,2,0.142086,9.439432
06121953,26,0,2024-03-02T11:21:49.353Z,male_vraiment_flat_70.wav,0,False,963,70,M,3,0.213129,26.204853
06121953,26,0,2024-03-02T11:21:49.353Z,male_vraiment_flat_70.wav,0,False,963,70,M,4,0.284172,19.735476
06121953,26,0,2024-03-02T11:21:49.353Z,male_vraiment_flat_70.wav,0,False,963,70,M,5,0.355215,-45.465161
06121953,26,0,2024-03-02T11:21:49.353Z,male_vraiment_flat_70.wav,0,False,963,70,M,6,0.426259,24.901866
06121953,26,0,2024-03-02T11:21:49.353Z,male_vraiment_flat_108.wav,1,True,963,70,M,0,0.000000,92.203113
06121953,26,0,2024-03-02T11:21:49.353Z,male_vraiment_flat_108.wav,1,True,963,70,M,1,0.071043,-74.681876
06121953,26,0,2024-03-02T11:21:49.353Z,male_vraiment_flat_108.wav,1,True,963,70,M,2,0.142086,-18.773488
06121953,26,0,2024-03-02T11:21:49.353Z,male_vraiment_flat_108.wav,1,True,963,70,M,3,0.213129,73.054230
06121953,26,0,2024-03-02T11:21:49.353Z,male_vraiment_flat_108.wav,1,True,963,70,M,4,0.284172,-72.824646
06121953,26,0,2024-03-02T11:21:49.353Z,male_vraiment_flat_108.wav,1,True,963,70,M,5,0.355215,140.895697
06121953,26,0,2024-03-02T11:21:49.353Z,male_vraiment_flat_108.wav,1,True,963,70,M,6,0.426259,13.161932
06121953,27,0,2024-03-02T11:21:49.353Z,male_vraiment_flat_56.wav,0,False,811,70,M,0,0.000000,30.953431
06121953,27,0,2024-03-02T11:21:49.353Z,male_vraiment_flat_56.wav,0,False,811,70,M,1,0.071043,-50.543389
06121953,27,0,2024-03-02T11:21:49.353Z,male_vraiment_flat_56.wav,0,False,811,70,M,2,0.142086,-40.325616
06121953,27,0,2024-03-02T11:21:49.353Z,male_vraiment_flat_56.wav,0,False,811,70,M,3,0.213129,130.397773
06121953,27,0,2024-03-02T11:21:49.353Z,male_vraiment_flat_56.wav,0,False,811,70,M,4,0.284172,-66.278306
06121953,27,0,2024-03-02T11:21:49.353Z,male_vraiment_flat_56.wav,0,False,811,70,M,5,0.355215,127.583751
06121953,27,0,2024-03-02T11:21:49.353Z,male_vraiment_flat_56.wav,0,False,811,70,M,6,0.426259,-120.769688
06121953,27,0,2024-03-02T11:21:49.353Z,male_vraiment_flat_96.wav,1,True,811,70,M,0,0.000000,94.448216
06121953,27,0,2024-03-02T11:21:49.353Z,male_vraiment_flat_96.wav,1,True,811,70,M,1,0.071043,52.639741
06121953,27,0,2024-03-02T11:21:49.353Z,male_vraiment_flat_96.wav,1,True,811,70,M,2,0.142086,12.600351
06121953,27,0,2024-03-02T11:21:49.353Z,male_vraiment_flat_96.wav,1,True,811,70,M,3,0.213129,53.097554
06121953,27,0,2024-03-02T11:21:49.353Z,male_vraiment_flat_96.wav,1,True,811,70,M,4,0.284172,-62.165310
06121953,27,0,2024-03-02T11:21:49.353Z,male_vraiment_flat_96.wav,1,True,811,70,M,5,0.355215,18.022684
06121953,27,0,2024-03-02T11:21:49.353Z,male_vraiment_flat_96.wav,1,True,811,70,M,6,0.426259,-9.714791
06121953,28,0,2024-03-02T11:21:49.353Z,male_vraiment_flat_79.wav,0,False,871,70,M,0,0.000000,-102.946331
06121953,28,0,2024-03-02T11:21:49.353Z,male_vraiment_flat_79.wav,0,False,871,70,M,1,0.071043,143.002978
06121953,28,0,2024-03-02T11:21:49.353Z,male_vraiment_flat_79.wav,0,False,871,70,M,2,0.142086,-77.255333
06121953,28,0,2024-03-02T11:21:49.353Z,male_vraiment_flat_79.wav,0,False,871,70,M,3,0.213129,139.308503
06121953,28,0,2024-03-02T11:21:49.353Z,male_vraiment_flat_79.wav,0,False,871,70,M,4,0.284172,53.797207
06121953,28,0,2024-03-02T11:21:49.353Z,male_vraiment_flat_79.wav,0,False,871,70,M,5,0.355215,-97.855801
06121953,28,0,2024-03-02T11:21:49.353Z,male_vraiment_flat_79.wav,0,False,871,70,M,6,0.426259,15.451057
06121953,28,0,2024-03-02T11:21:49.353Z,male_vraiment_flat_114.wav,1,True,871,70,M,0,0.000000,-107.614700
06121953,28,0,2024-03-02T11:21:49.353Z,male_vraiment_flat_114.wav,1,True,871,70,M,1,0.071043,-121.606705
06121953,28,0,2024-03-02T11:21:49.353Z,male_vraiment_flat_114.wav,1,True,871,70,M,2,0.142086,26.820871
06121953,28,0,2024-03-02T11:21:49.353Z,male_vraiment_flat_114.wav,1,True,871,70,M,3,0.213129,42.957584
06121953,28,0,2024-03-02T11:21:49.353Z,male_vraiment_flat_114.wav,1,True,871,70,M,4,0.284172,-48.053802
06121953,28,0,2024-03-02T11:21:49.353Z,male_vraiment_flat_114.wav,1,True,871,70,M,5,0.355215,-10.474627
06121953,28,0,2024-03-02T11:21:49.353Z,male_vraiment_flat_114.wav,1,True,871,70,M,6,0.426259,-131.069216
06121953,29,0,2024-03-02T11:21:49.353Z,male_vraiment_flat_85.wav,0,False,717,70,M,0,0.000000,16.220058
06121953,29,0,2024-03-02T11:21:49.353Z,male_vraiment_flat_85.wav,0,False,717,70,M,1,0.071043,97.172848
06121953,29,0,2024-03-02T11:21:49.353Z,male_vraiment_flat_85.wav,0,False,717,70,M,2,0.142086,121.919735
06121953,29,0,2024-03-02T11:21:49.353Z,male_vraiment_flat_85.wav,0,False,717,70,M,3,0.213129,69.049273
06121953,29,0,2024-03-02T11:21:49.353Z,male_vraiment_flat_85.wav,0,False,717,70,M,4,0.284172,124.256579
06121953,29,0,2024-03-02T11:21:49.353Z,male_vraiment_flat_85.wav,0,False,717,70,M,5,0.355215,30.981006
06121953,29,0,2024-03-02T11:21:49.353Z,male_vraiment_flat_85.wav,0,False,717,70,M,6,0.426259,-67.410158
06121953,29,0,2024-03-02T11:21:49.353Z,male_vraiment_flat_52.wav,1,True,717,70,M,0,0.000000,-133.801400
06121953,29,0,2024-03-02T11:21:49.353Z,male_vraiment_flat_52.wav,1,True,717,70,M,1,0.071043,34.189717
06121953,29,0,2024-03-02T11:21:49.353Z,male_vraiment_flat_52.wav,1,True,717,70,M,2,0.142086,-145.714669
06121953,29,0,2024-03-02T11:21:49.353Z,male_vraiment_flat_52.wav,1,True,717,70,M,3,0.213129,1.717896
06121953,29,0,2024-03-02T11:21:49.353Z,male_vraiment_flat_52.wav,1,True,717,70,M,4,0.284172,99.036025
06121953,29,0,2024-03-02T11:21:49.353Z,male_vraiment_flat_52.wav,1,True,717,70,M,5,0.355215,56.473042
06121953,29,0,2024-03-02T11:21:49.353Z,male_vraiment_flat_52.wav,1,True,717,70,M,6,0.426259,113.578937
06121953,30,0,2024-03-02T11:21:49.353Z,male_vraiment_flat_2.wav,0,True,1126,70,M,0,0.000000,-26.280713
06121953,30,0,2024-03-02T11:21:49.353Z,male_vraiment_flat_2.wav,0,True,1126,70,M,1,0.071043,83.932106
06121953,30,0,2024-03-02T11:21:49.353Z,male_vraiment_flat_2.wav,0,True,1126,70,M,2,0.142086,59.369452
06121953,30,0,2024-03-02T11:21:49.353Z,male_vraiment_flat_2.wav,0,True,1126,70,M,3,0.213129,8.881156
06121953,30,0,2024-03-02T11:21:49.353Z,male_vraiment_flat_2.wav,0,True,1126,70,M,4,0.284172,3.498385
06121953,30,0,2024-03-02T11:21:49.353Z,male_vraiment_flat_2.wav,0,True,1126,70,M,5,0.355215,-133.430007
06121953,30,0,2024-03-02T11:21:49.353Z,male_vraiment_flat_2.wav,0,True,1126,70,M,6,0.426259,94.606197
06121953,30,0,2024-03-02T11:21:49.353Z,male_vraiment_flat_40.wav,1,False,1126,70,M,0,0.000000,14.191871
06121953,30,0,2024-03-02T11:21:49.353Z,male_vraiment_flat_40.wav,1,False,1126,70,M,1,0.071043,-146.480257
06121953,30,0,2024-03-02T11:21:49.353Z,male_vraiment_flat_40.wav,1,False,1126,70,M,2,0.142086,53.736102
06121953,30,0,2024-03-02T11:21:49.353Z,male_vraiment_flat_40.wav,1,False,1126,70,M,3,0.213129,76.339598
06121953,30,0,2024-03-02T11:21:49.353Z,male_vraiment_flat_40.wav,1,False,1126,70,M,4,0.284172,128.682971
06121953,30,0,2024-03-02T11:21:49.353Z,male_vraiment_flat_40.wav,1,False,1126,70,M,5,0.355215,-84.474700
06121953,30,0,2024-03-02T11:21:49.353Z,male_vraiment_flat_40.wav,1,False,1126,70,M,6,0.426259,41.341932
06121953,31,0,2024-03-02T11:21:49.353Z,male_vraiment_flat_48.wav,0,False,614,70,M,0,0.000000,90.503303
06121953,31,0,2024-03-02T11:21:49.353Z,male_vraiment_flat_48.wav,0,False,614,70,M,1,0.071043,6.970948
06121953,31,0,2024-03-02T11:21:49.353Z,male_vraiment_flat_48.wav,0,False,614,70,M,2,0.142086,67.030496
06121953,31,0,2024-03-02T11:21:49.353Z,male_vraiment_flat_48.wav,0,False,614,70,M,3,0.213129,131.765290
06121953,31,0,2024-03-02T11:21:49.353Z,male_vraiment_flat_48.wav,0,False,614,70,M,4,0.284172,144.593501
06121953,31,0,2024-03-02T11:21:49.353Z,male_vraiment_flat_48.wav,0,False,614,70,M,5,0.355215,16.017944
06121953,31,0,2024-03-02T11:21:49.353Z,male_vraiment_flat_48.wav,0,False,614,70,M,6,0.426259,-146.021483
06121953,31,0,2024-03-02T11:21:49.353Z,male_vraiment_flat_137.wav,1,True,614,70,M,0,0.000000,80.130674
06121953,31,0,2024-03-02T11:21:49.353Z,male_vraiment_flat_137.wav,1,True,614,70,M,1,0.071043,138.574149
06121953,31,0,2024-03-02T11:21:49.353Z,male_vraiment_flat_137.wav,1,True,614,70,M,2,0.142086,75.493630
06121953,31,0,2024-03-02T11:21:49.353Z,male_vraiment_flat_137.wav,1,True,614,70,M,3,0.213129,-91.745449
06121953,31,0,2024-03-02T11:21:49.353Z,male_vraiment_flat_137.wav,1,True,614,70,M,4,0.284172,67.674634
06121953,31,0,2024-03-02T11:21:49.353Z,male_vraiment_flat_137.wav,1,True,614,70,M,5,0.355215,136.412365
06121953,31,0,2024-03-02T11:21:49.353Z,male_vraiment_flat_137.wav,1,True,614,70,M,6,0.426259,13.296001
06121953,32,0,2024-03-02T11:21:49.353Z,male_vraiment_flat_130.wav,0,False,1997,70,M,0,0.000000,-146.057737
06121953,32,0,2024-03-02T11:21:49.353Z,male_vraiment_flat_130.wav,0,False,1997,70,M,1,0.071043,-49.781911
06121953,32,0,2024-03-02T11:21:49.353Z,male_vraiment_flat_130.wav,0,False,1997,70,M,2,0.142086,74.893740
06121953,32,0,2024-03-02T11:21:49.353Z,male_vraiment_flat_130.wav,0,False,1997,70,M,3,0.213129,-14.505163
06121953,32,0,2024-03-02T11:21:49.353Z,male_vraiment_flat_130.wav,0,False,1997,70,M,4,0.284172,16.979815
06121953,32,0,2024-03-02T11:21:49.353Z,male_vraiment_flat_130.wav,0,False,1997,70,M,5,0.355215,-66.512052
06121953,32,0,2024-03-02T11:21:49.353Z,male_vraiment_flat_130.wav,0,False,1997,70,M,6,0.426259,-59.569067
06121953,32,0,2024-03-02T11:21:49.353Z,male_vraiment_flat_5.wav,1,True,1997,70,M,0,0.000000,88.556797
06121953,32,0,2024-03-02T11:21:49.353Z,male_vraiment_flat_5.wav,1,True,1997,70,M,1,0.071043,120.959384
06121953,32,0,2024-03-02T11:21:49.353Z,male_vraiment_flat_5.wav,1,True,1997,70,M,2,0.142086,-116.065822
06121953,32,0,2024-03-02T11:21:49.353Z,male_vraiment_flat_5.wav,1,True,1997,70,M,3,0.213129,130.464712
06121953,32,0,2024-03-02T11:21:49.353Z,male_vraiment_flat_5.wav,1,True,1997,70,M,4,0.284172,88.167919
06121953,32,0,2024-03-02T11:21:49.353Z,male_vraiment_flat_5.wav,1,True,1997,70,M,5,0.355215,75.417329
06121953,32,0,2024-03-02T11:21:49.353Z,male_vraiment_flat_5.wav,1,True,1997,70,M,6,0.426259,65.499211
06121953,33,0,2024-03-02T11:21:49.353Z,male_vraiment_flat_110.wav,0,True,1269,70,M,0,0.000000,-78.850505
06121953,33,0,2024-03-02T11:21:49.353Z,male_vraiment_flat_110.wav,0,True,1269,70,M,1,0.071043,-96.953533
06121953,33,0,2024-03-02T11:21:49.353Z,male_vraiment_flat_110.wav,0,True,1269,70,M,2,0.142086,-38.365791
06121953,33,0,2024-03-02T11:21:49.353Z,male_vraiment_flat_110.wav,0,True,1269,70,M,3,0.213129,77.506607
06121953,33,0,2024-03-02T11:21:49.353Z,male_vraiment_flat_110.wav,0,True,1269,70,M,4,0.284172,-64.506238
06121953,33,0,2024-03-02T11:21:49.353Z,male_vraiment_flat_110.wav,0,True,1269,70,M,5,0.355215,15.353748
06121953,33,0,2024-03-02T11:21:49.353Z,male_vraiment_flat_110.wav,0,True,1269,70,M,6,0.426259,121.287299
06121953,33,0,2024-03-02T11:21:49.353Z,male_vraiment_flat_132.wav,1,False,1269,70,M,0,0.000000,-95.735908
06121953,33,0,2024-03-02T11:21:49.353Z,male_vraiment_flat_132.wav,1,False,1269,70,M,1,0.071043,84.596174
06121953,33,0,2024-03-02T11:21:49.353Z,male_vraiment_flat_132.wav,1,False,1269,70,M,2,0.142086,30.815879
06121953,33,0,2024-03-02T11:21:49.353Z,male_vraiment_flat_132.wav,1,False,1269,70,M,3,0.213129,80.998062
06121953,33,0,2024-03-02T11:21:49.353Z,male_vraiment_flat_132.wav,1,False,1269,70,M,4,0.284172,4.635713
06121953,33,0,2024-03-02T11:21:49.353Z,male_vraiment_flat_132.wav,1,False,1269,70,M,5,0.355215,-66.322755
06121953,33,0,2024-03-02T11:21:49.353Z,male_vraiment_flat_132.wav,1,False,1269,70,M,6,0.426259,13.571979
06121953,34,0,2024-03-02T11:21:49.353Z,male_vraiment_flat_100.wav,0,True,3255,70,M,0,0.000000,43.543409
06121953,34,0,2024-03-02T11:21:49.353Z,male_vraiment_flat_100.wav,0,True,3255,70,M,1,0.071043,103.015481
06121953,34,0,2024-03-02T11:21:49.353Z,male_vraiment_flat_100.wav,0,True,3255,70,M,2,0.142086,72.119204
06121953,34,0,2024-03-02T11:21:49.353Z,male_vraiment_flat_100.wav,0,True,3255,70,M,3,0.213129,-134.244223
06121953,34,0,2024-03-02T11:21:49.353Z,male_vraiment_flat_100.wav,0,True,3255,70,M,4,0.284172,118.896008
06121953,34,0,2024-03-02T11:21:49.353Z,male_vraiment_flat_100.wav,0,True,3255,70,M,5,0.355215,-31.136245
06121953,34,0,2024-03-02T11:21:49.353Z,male_vraiment_flat_100.wav,0,True,3255,70,M,6,0.426259,41.834207
06121953,34,0,2024-03-02T11:21:49.353Z,male_vraiment_flat_151.wav,1,False,3255,70,M,0,0.000000,-67.748525
06121953,34,0,2024-03-02T11:21:49.353Z,male_vraiment_flat_151.wav,1,False,3255,70,M,1,0.071043,54.361913
06121953,34,0,2024-03-02T11:21:49.353Z,male_vraiment_flat_151.wav,1,False,3255,70,M,2,0.142086,-48.392138
06121953,34,0,2024-03-02T11:21:49.353Z,male_vraiment_flat_151.wav,1,False,3255,70,M,3,0.213129,35.257299
06121953,34,0,2024-03-02T11:21:49.353Z,male_vraiment_flat_151.wav,1,False,3255,70,M,4,0.284172,30.428121
06121953,34,0,2024-03-02T11:21:49.353Z,male_vraiment_flat_151.wav,1,False,3255,70,M,5,0.355215,28.910983
06121953,34,0,2024-03-02T11:21:49.353Z,male_vraiment_flat_151.wav,1,False,3255,70,M,6,0.426259,-22.593444
06121953,35,0,2024-03-02T11:21:49.353Z,male_vraiment_flat_187.wav,0,True,880,70,M,0,0.000000,-30.403680
06121953,35,0,2024-03-02T11:21:49.353Z,male_vraiment_flat_187.wav,0,True,880,70,M,1,0.071043,-60.531290
06121953,35,0,2024-03-02T11:21:49.353Z,male_vraiment_flat_187.wav,0,True,880,70,M,2,0.142086,-84.335778
06121953,35,0,2024-03-02T11:21:49.353Z,male_vraiment_flat_187.wav,0,True,880,70,M,3,0.213129,-15.670285
06121953,35,0,2024-03-02T11:21:49.353Z,male_vraiment_flat_187.wav,0,True,880,70,M,4,0.284172,-56.852158
06121953,35,0,2024-03-02T11:21:49.353Z,male_vraiment_flat_187.wav,0,True,880,70,M,5,0.355215,50.399162
06121953,35,0,2024-03-02T11:21:49.353Z,male_vraiment_flat_187.wav,0,True,880,70,M,6,0.426259,83.384475
06121953,35,0,2024-03-02T11:21:49.353Z,male_vraiment_flat_199.wav,1,False,880,70,M,0,0.000000,-30.664010
06121953,35,0,2024-03-02T11:21:49.353Z,male_vraiment_flat_199.wav,1,False,880,70,M,1,0.071043,2.060872
06121953,35,0,2024-03-02T11:21:49.353Z,male_vraiment_flat_199.wav,1,False,880,70,M,2,0.142086,-136.256691
06121953,35,0,2024-03-02T11:21:49.353Z,male_vraiment_flat_199.wav,1,False,880,70,M,3,0.213129,20.654546
06121953,35,0,2024-03-02T11:21:49.353Z,male_vraiment_flat_199.wav,1,False,880,70,M,4,0.284172,41.179386
06121953,35,0,2024-03-02T11:21:49.353Z,male_vraiment_flat_199.wav,1,False,880,70,M,5,0.355215,1.343346
06121953,35,0,2024-03-02T11:21:49.353Z,male_vraiment_flat_199.wav,1,False,880,70,M,6,0.426259,140.228288
06121953,36,0,2024-03-02T11:21:49.353Z,male_vraiment_flat_46.wav,0,False,1723,70,M,0,0.000000,48.231571
06121953,36,0,2024-03-02T11:21:49.353Z,male_vraiment_flat_46.wav,0,False,1723,70,M,1,0.071043,-13.386862
06121953,36,0,2024-03-02T11:21:49.353Z,male_vraiment_flat_46.wav,0,False,1723,70,M,2,0.142086,107.175029
06121953,36,0,2024-03-02T11:21:49.353Z,male_vraiment_flat_46.wav,0,False,1723,70,M,3,0.213129,24.056117
06121953,36,0,2024-03-02T11:21:49.353Z,male_vraiment_flat_46.wav,0,False,1723,70,M,4,0.284172,72.951541
06121953,36,0,2024-03-02T11:21:49.353Z,male_vraiment_flat_46.wav,0,False,1723,70,M,5,0.355215,123.539508
06121953,36,0,2024-03-02T11:21:49.353Z,male_vraiment_flat_46.wav,0,False,1723,70,M,6,0.426259,50.410407
06121953,36,0,2024-03-02T11:21:49.353Z,male_vraiment_flat_45.wav,1,True,1723,70,M,0,0.000000,-108.869549
06121953,36,0,2024-03-02T11:21:49.353Z,male_vraiment_flat_45.wav,1,True,1723,70,M,1,0.071043,-22.660114
06121953,36,0,2024-03-02T11:21:49.353Z,male_vraiment_flat_45.wav,1,True,1723,70,M,2,0.142086,-141.096375
06121953,36,0,2024-03-02T11:21:49.353Z,male_vraiment_flat_45.wav,1,True,1723,70,M,3,0.213129,-24.815065
06121953,36,0,2024-03-02T11:21:49.353Z,male_vraiment_flat_45.wav,1,True,1723,70,M,4,0.284172,102.804681
06121953,36,0,2024-03-02T11:21:49.353Z,male_vraiment_flat_45.wav,1,True,1723,70,M,5,0.355215,112.365201
06121953,36,0,2024-03-02T11:21:49.353Z,male_vraiment_flat_45.wav,1,True,1723,70,M,6,0.426259,95.196821
06121953,37,0,2024-03-02T11:21:49.353Z,male_vraiment_flat_166.wav,0,False,691,70,M,0,0.000000,40.484109
06121953,37,0,2024-03-02T11:21:49.353Z,male_vraiment_flat_166.wav,0,False,691,70,M,1,0.071043,-10.250913
06121953,37,0,2024-03-02T11:21:49.353Z,male_vraiment_flat_166.wav,0,False,691,70,M,2,0.142086,-109.726305
06121953,37,0,2024-03-02T11:21:49.353Z,male_vraiment_flat_166.wav,0,False,691,70,M,3,0.213129,-32.205058
06121953,37,0,2024-03-02T11:21:49.353Z,male_vraiment_flat_166.wav,0,False,691,70,M,4,0.284172,141.461363
06121953,37,0,2024-03-02T11:21:49.353Z,male_vraiment_flat_166.wav,0,False,691,70,M,5,0.355215,65.199031
06121953,37,0,2024-03-02T11:21:49.353Z,male_vraiment_flat_166.wav,0,False,691,70,M,6,0.426259,-54.014549
06121953,37,0,2024-03-02T11:21:49.353Z,male_vraiment_flat_99.wav,1,True,691,70,M,0,0.000000,-67.009894
06121953,37,0,2024-03-02T11:21:49.353Z,male_vraiment_flat_99.wav,1,True,691,70,M,1,0.071043,-124.385437
06121953,37,0,2024-03-02T11:21:49.353Z,male_vraiment_flat_99.wav,1,True,691,70,M,2,0.142086,-32.338754
06121953,37,0,2024-03-02T11:21:49.353Z,male_vraiment_flat_99.wav,1,True,691,70,M,3,0.213129,-145.840775
06121953,37,0,2024-03-02T11:21:49.353Z,male_vraiment_flat_99.wav,1,True,691,70,M,4,0.284172,-6.786611
06121953,37,0,2024-03-02T11:21:49.353Z,male_vraiment_flat_99.wav,1,True,691,70,M,5,0.355215,89.278278
06121953,37,0,2024-03-02T11:21:49.353Z,male_vraiment_flat_99.wav,1,True,691,70,M,6,0.426259,-47.823672
06121953,38,0,2024-03-02T11:21:49.353Z,male_vraiment_flat_3.wav,0,False,837,70,M,0,0.000000,139.821339
06121953,38,0,2024-03-02T11:21:49.353Z,male_vraiment_flat_3.wav,0,False,837,70,M,1,0.071043,-90.088416
06121953,38,0,2024-03-02T11:21:49.353Z,male_vraiment_flat_3.wav,0,False,837,70,M,2,0.142086,-144.376143
06121953,38,0,2024-03-02T11:21:49.353Z,male_vraiment_flat_3.wav,0,False,837,70,M,3,0.213129,-83.117215
06121953,38,0,2024-03-02T11:21:49.353Z,male_vraiment_flat_3.wav,0,False,837,70,M,4,0.284172,-15.266959
06121953,38,0,2024-03-02T11:21:49.353Z,male_vraiment_flat_3.wav,0,False,837,70,M,5,0.355215,-78.645111
06121953,38,0,2024-03-02T11:21:49.353Z,male_vraiment_flat_3.wav,0,False,837,70,M,6,0.426259,18.566710
06121953,38,0,2024-03-02T11:21:49.353Z,male_vraiment_flat_175.wav,1,True,837,70,M,0,0.000000,-48.933192
06121953,38,0,2024-03-02T11:21:49.353Z,male_vraiment_flat_175.wav,1,True,837,70,M,1,0.071043,23.459372
06121953,38,0,2024-03-02T11:21:49.353Z,male_vraiment_flat_175.wav,1,True,837,70,M,2,0.142086,-82.944560
06121953,38,0,2024-03-02T11:21:49.353Z,male_vraiment_flat_175.wav,1,True,837,70,M,3,0.213129,-41.749231
06121953,38,0,2024-03-02T11:21:49.353Z,male_vraiment_flat_175.wav,1,True,837,70,M,4,0.284172,4.976289
06121953,38,0,2024-03-02T11:21:49.353Z,male_vraiment_flat_175.wav,1,True,837,70,M,5,0.355215,52.438424
06121953,38,0,2024-03-02T11:21:49.353Z,male_vraiment_flat_175.wav,1,True,837,70,M,6,0.426259,-117.325248
06121953,39,0,2024-03-02T11:21:49.353Z,male_vraiment_flat_68.wav,0,False,1131,70,M,0,0.000000,-95.161618
06121953,39,0,2024-03-02T11:21:49.353Z,male_vraiment_flat_68.wav,0,False,1131,70,M,1,0.071043,-119.152564
06121953,39,0,2024-03-02T11:21:49.353Z,male_vraiment_flat_68.wav,0,False,1131,70,M,2,0.142086,18.051976
06121953,39,0,2024-03-02T11:21:49.353Z,male_vraiment_flat_68.wav,0,False,1131,70,M,3,0.213129,-26.870716
06121953,39,0,2024-03-02T11:21:49.353Z,male_vraiment_flat_68.wav,0,False,1131,70,M,4,0.284172,87.472746
06121953,39,0,2024-03-02T11:21:49.353Z,male_vraiment_flat_68.wav,0,False,1131,70,M,5,0.355215,-56.607347
06121953,39,0,2024-03-02T11:21:49.353Z,male_vraiment_flat_68.wav,0,False,1131,70,M,6,0.426259,148.066508
06121953,39,0,2024-03-02T11:21:49.353Z,male_vraiment_flat_27.wav,1,True,1131,70,M,0,0.000000,-44.196026
06121953,39,0,2024-03-02T11:21:49.353Z,male_vraiment_flat_27.wav,1,True,1131,70,M,1,0.071043,72.435582
06121953,39,0,2024-03-02T11:21:49.353Z,male_vraiment_flat_27.wav,1,True,1131,70,M,2,0.142086,30.880154
06121953,39,0,2024-03-02T11:21:49.353Z,male_vraiment_flat_27.wav,1,True,1131,70,M,3,0.213129,-98.055697
06121953,39,0,2024-03-02T11:21:49.353Z,male_vraiment_flat_27.wav,1,True,1131,70,M,4,0.284172,83.700413
06121953,39,0,2024-03-02T11:21:49.353Z,male_vraiment_flat_27.wav,1,True,1131,70,M,5,0.355215,23.865121
06121953,39,0,2024-03-02T11:21:49.353Z,male_vraiment_flat_27.wav,1,True,1131,70,M,6,0.426259,-44.006115
06121953,40,0,2024-03-02T11:21:49.353Z,male_vraiment_flat_11.wav,0,False,1292,70,M,0,0.000000,106.632802
06121953,40,0,2024-03-02T11:21:49.353Z,male_vraiment_flat_11.wav,0,False,1292,70,M,1,0.071043,30.235531
06121953,40,0,2024-03-02T11:21:49.353Z,male_vraiment_flat_11.wav,0,False,1292,70,M,2,0.142086,-31.934811
06121953,40,0,2024-03-02T11:21:49.353Z,male_vraiment_flat_11.wav,0,False,1292,70,M,3,0.213129,-70.817469
06121953,40,0,2024-03-02T11:21:49.353Z,male_vraiment_flat_11.wav,0,False,1292,70,M,4,0.284172,-134.947845
06121953,40,0,2024-03-02T11:21:49.353Z,male_vraiment_flat_11.wav,0,False,1292,70,M,5,0.355215,-61.866249
06121953,40,0,2024-03-02T11:21:49.353Z,male_vraiment_flat_11.wav,0,False,1292,70,M,6,0.426259,61.370028
06121953,40,0,2024-03-02T11:21:49.353Z,male_vraiment_flat_31.wav,1,True,1292,70,M,0,0.000000,-118.123136
06121953,40,0,2024-03-02T11:21:49.353Z,male_vraiment_flat_31.wav,1,True,1292,70,M,1,0.071043,-54.324615
06121953,40,0,2024-03-02T11:21:49.353Z,male_vraiment_flat_31.wav,1,True,1292,70,M,2,0.142086,-56.463303
06121953,40,0,2024-03-02T11:21:49.353Z,male_vraiment_flat_31.wav,1,True,1292,70,M,3,0.213129,65.563679
06121953,40,0,2024-03-02T11:21:49.353Z,male_vraiment_flat_31.wav,1,True,1292,70,M,4,0.284172,91.438424
06121953,40,0,2024-03-02T11:21:49.353Z,male_vraiment_flat_31.wav,1,True,1292,70,M,5,0.355215,-2.661707
06121953,40,0,2024-03-02T11:21:49.353Z,male_vraiment_flat_31.wav,1,True,1292,70,M,6,0.426259,-48.318391
06121953,41,0,2024-03-02T11:21:49.353Z,male_vraiment_flat_165.wav,0,False,1780,70,M,0,0.000000,-133.486308
06121953,41,0,2024-03-02T11:21:49.353Z,male_vraiment_flat_165.wav,0,False,1780,70,M,1,0.071043,-51.704384
06121953,41,0,2024-03-02T11:21:49.353Z,male_vraiment_flat_165.wav,0,False,1780,70,M,2,0.142086,123.734410
06121953,41,0,2024-03-02T11:21:49.353Z,male_vraiment_flat_165.wav,0,False,1780,70,M,3,0.213129,-122.063627
06121953,41,0,2024-03-02T11:21:49.353Z,male_vraiment_flat_165.wav,0,False,1780,70,M,4,0.284172,105.373754
06121953,41,0,2024-03-02T11:21:49.353Z,male_vraiment_flat_165.wav,0,False,1780,70,M,5,0.355215,42.489978
06121953,41,0,2024-03-02T11:21:49.353Z,male_vraiment_flat_165.wav,0,False,1780,70,M,6,0.426259,65.536300
06121953,41,0,2024-03-02T11:21:49.353Z,male_vraiment_flat_109.wav,1,True,1780,70,M,0,0.000000,47.448278
06121953,41,0,2024-03-02T11:21:49.353Z,male_vraiment_flat_109.wav,1,True,1780,70,M,1,0.071043,97.426800
06121953,41,0,2024-03-02T11:21:49.353Z,male_vraiment_flat_109.wav,1,True,1780,70,M,2,0.142086,-100.706472
06121953,41,0,2024-03-02T11:21:49.353Z,male_vraiment_flat_109.wav,1,True,1780,70,M,3,0.213129,-21.542212
06121953,41,0,2024-03-02T11:21:49.353Z,male_vraiment_flat_109.wav,1,True,1780,70,M,4,0.284172,-35.096541
06121953,41,0,2024-03-02T11:21:49.353Z,male_vraiment_flat_109.wav,1,True,1780,70,M,5,0.355215,33.270062
06121953,41,0,2024-03-02T11:21:49.353Z,male_vraiment_flat_109.wav,1,True,1780,70,M,6,0.426259,35.804127
06121953,42,0,2024-03-02T11:21:49.353Z,male_vraiment_flat_25.wav,0,True,955,70,M,0,0.000000,-129.422108
06121953,42,0,2024-03-02T11:21:49.353Z,male_vraiment_flat_25.wav,0,True,955,70,M,1,0.071043,-12.331663
06121953,42,0,2024-03-02T11:21:49.353Z,male_vraiment_flat_25.wav,0,True,955,70,M,2,0.142086,-97.065740
06121953,42,0,2024-03-02T11:21:49.353Z,male_vraiment_flat_25.wav,0,True,955,70,M,3,0.213129,-6.253122
06121953,42,0,2024-03-02T11:21:49.353Z,male_vraiment_flat_25.wav,0,True,955,70,M,4,0.284172,31.933743
06121953,42,0,2024-03-02T11:21:49.353Z,male_vraiment_flat_25.wav,0,True,955,70,M,5,0.355215,-58.415946
06121953,42,0,2024-03-02T11:21:49.353Z,male_vraiment_flat_25.wav,0,True,955,70,M,6,0.426259,117.143598
06121953,42,0,2024-03-02T11:21:49.353Z,male_vraiment_flat_119.wav,1,False,955,70,M,0,0.000000,-44.932226
06121953,42,0,2024-03-02T11:21:49.353Z,male_vraiment_flat_119.wav,1,False,955,70,M,1,0.071043,12.460519
06121953,42,0,2024-03-02T11:21:49.353Z,male_vraiment_flat_119.wav,1,False,955,70,M,2,0.142086,58.855712
06121953,42,0,2024-03-02T11:21:49.353Z,male_vraiment_flat_119.wav,1,False,955,70,M,3,0.213129,26.967779
06121953,42,0,2024-03-02T11:21:49.353Z,male_vraiment_flat_119.wav,1,False,955,70,M,4,0.284172,139.969902
06121953,42,0,2024-03-02T11:21:49.353Z,male_vraiment_flat_119.wav,1,False,955,70,M,5,0.355215,49.325586
06121953,42,0,2024-03-02T11:21:49.353Z,male_vraiment_flat_119.wav,1,False,955,70,M,6,0.426259,89.552624
06121953,43,0,2024-03-02T11:21:49.353Z,male_vraiment_flat_112.wav,0,True,1142,70,M,0,0.000000,40.318333
06121953,43,0,2024-03-02T11:21:49.353Z,male_vraiment_flat_112.wav,0,True,1142,70,M,1,0.071043,28.779991
06121953,43,0,2024-03-02T11:21:49.353Z,male_vraiment_flat_112.wav,0,True,1142,70,M,2,0.142086,-86.990654
06121953,43,0,2024-03-02T11:21:49.353Z,male_vraiment_flat_112.wav,0,True,1142,70,M,3,0.213129,-136.064498
06121953,43,0,2024-03-02T11:21:49.353Z,male_vraiment_flat_112.wav,0,True,1142,70,M,4,0.284172,89.286191
06121953,43,0,2024-03-02T11:21:49.353Z,male_vraiment_flat_112.wav,0,True,1142,70,M,5,0.355215,99.616935
06121953,43,0,2024-03-02T11:21:49.353Z,male_vraiment_flat_112.wav,0,True,1142,70,M,6,0.426259,-61.253639
06121953,43,0,2024-03-02T11:21:49.353Z,male_vraiment_flat_123.wav,1,False,1142,70,M,0,0.000000,24.338681
06121953,43,0,2024-03-02T11:21:49.353Z,male_vraiment_flat_123.wav,1,False,1142,70,M,1,0.071043,-76.255610
06121953,43,0,2024-03-02T11:21:49.353Z,male_vraiment_flat_123.wav,1,False,1142,70,M,2,0.142086,16.829571
06121953,43,0,2024-03-02T11:21:49.353Z,male_vraiment_flat_123.wav,1,False,1142,70,M,3,0.213129,3.085792
06121953,43,0,2024-03-02T11:21:49.353Z,male_vraiment_flat_123.wav,1,False,1142,70,M,4,0.284172,81.658793
06121953,43,0,2024-03-02T11:21:49.353Z,male_vraiment_flat_123.wav,1,False,1142,70,M,5,0.355215,73.758354
06121953,43,0,2024-03-02T11:21:49.353Z,male_vraiment_flat_123.wav,1,False,1142,70,M,6,0.426259,103.644220
06121953,44,0,2024-03-02T11:21:49.353Z,male_vraiment_flat_1.wav,0,True,987,70,M,0,0.000000,-87.527114
06121953,44,0,2024-03-02T11:21:49.353Z,male_vraiment_flat_1.wav,0,True,987,70,M,1,0.071043,-24.885537
06121953,44,0,2024-03-02T11:21:49.353Z,male_vraiment_flat_1.wav,0,True,987,70,M,2,0.142086,25.492299
06121953,44,0,2024-03-02T11:21:49.353Z,male_vraiment_flat_1.wav,0,True,987,70,M,3,0.213129,-85.109295
06121953,44,0,2024-03-02T11:21:49.353Z,male_vraiment_flat_1.wav,0,True,987,70,M,4,0.284172,41.982644
06121953,44,0,2024-03-02T11:21:49.353Z,male_vraiment_flat_1.wav,0,True,987,70,M,5,0.355215,-147.448489
06121953,44,0,2024-03-02T11:21:49.353Z,male_vraiment_flat_1.wav,0,True,987,70,M,6,0.426259,3.412386
06121953,44,0,2024-03-02T11:21:49.353Z,male_vraiment_flat_69.wav,1,False,987,70,M,0,0.000000,-3.170538
06121953,44,0,2024-03-02T11:21:49.353Z,male_vraiment_flat_69.wav,1,False,987,70,M,1,0.071043,35.318973
06121953,44,0,2024-03-02T11:21:49.353Z,male_vraiment_flat_69.wav,1,False,987,70,M,2,0.142086,9.650212
06121953,44,0,2024-03-02T11:21:49.353Z,male_vraiment_flat_69.wav,1,False,987,70,M,3,0.213129,140.461686
06121953,44,0,2024-03-02T11:21:49.353Z,male_vraiment_flat_69.wav,1,False,987,70,M,4,0.284172,-72.489288
06121953,44,0,2024-03-02T11:21:49.353Z,male_vraiment_flat_69.wav,1,False,987,70,M,5,0.355215,-111.567531
06121953,44,0,2024-03-02T11:21:49.353Z,male_vraiment_flat_69.wav,1,False,987,70,M,6,0.426259,62.840145
06121953,45,0,2024-03-02T11:21:49.353Z,male_vraiment_flat_136.wav,0,True,601,70,M,0,0.000000,-47.296851
06121953,45,0,2024-03-02T11:21:49.353Z,male_vraiment_flat_136.wav,0,True,601,70,M,1,0.071043,-58.430070
06121953,45,0,2024-03-02T11:21:49.353Z,male_vraiment_flat_136.wav,0,True,601,70,M,2,0.142086,-0.935981
06121953,45,0,2024-03-02T11:21:49.353Z,male_vraiment_flat_136.wav,0,True,601,70,M,3,0.213129,-128.690729
06121953,45,0,2024-03-02T11:21:49.353Z,male_vraiment_flat_136.wav,0,True,601,70,M,4,0.284172,49.658863
06121953,45,0,2024-03-02T11:21:49.353Z,male_vraiment_flat_136.wav,0,True,601,70,M,5,0.355215,66.569477
06121953,45,0,2024-03-02T11:21:49.353Z,male_vraiment_flat_136.wav,0,True,601,70,M,6,0.426259,92.598952
06121953,45,0,2024-03-02T11:21:49.353Z,male_vraiment_flat_47.wav,1,False,601,70,M,0,0.000000,11.243959
06121953,45,0,2024-03-02T11:21:49.353Z,male_vraiment_flat_47.wav,1,False,601,70,M,1,0.071043,-131.885563
06121953,45,0,2024-03-02T11:21:49.353Z,male_vraiment_flat_47.wav,1,False,601,70,M,2,0.142086,22.720944
06121953,45,0,2024-03-02T11:21:49.353Z,male_vraiment_flat_47.wav,1,False,601,70,M,3,0.213129,-98.981706
06121953,45,0,2024-03-02T11:21:49.353Z,male_vraiment_flat_47.wav,1,False,601,70,M,4,0.284172,-117.392555
06121953,45,0,2024-03-02T11:21:49.353Z,male_vraiment_flat_47.wav,1,False,601,70,M,5,0.355215,-7.362816
06121953,45,0,2024-03-02T11:21:49.353Z,male_vraiment_flat_47.wav,1,False,601,70,M,6,0.426259,149.963589
06121953,46,0,2024-03-02T11:21:49.353Z,male_vraiment_flat_146.wav,0,False,1599,70,M,0,0.000000,92.610651
06121953,46,0,2024-03-02T11:21:49.353Z,male_vraiment_flat_146.wav,0,False,1599,70,M,1,0.071043,40.250954
06121953,46,0,2024-03-02T11:21:49.353Z,male_vraiment_flat_146.wav,0,False,1599,70,M,2,0.142086,99.988333
06121953,46,0,2024-03-02T11:21:49.353Z,male_vraiment_flat_146.wav,0,False,1599,70,M,3,0.213129,115.543405
06121953,46,0,2024-03-02T11:21:49.353Z,male_vraiment_flat_146.wav,0,False,1599,70,M,4,0.284172,-3.607960
06121953,46,0,2024-03-02T11:21:49.353Z,male_vraiment_flat_146.wav,0,False,1599,70,M,5,0.355215,-91.494225
06121953,46,0,2024-03-02T11:21:49.353Z,male_vraiment_flat_146.wav,0,False,1599,70,M,6,0.426259,-109.708123
06121953,46,0,2024-03-02T11:21:49.353Z,male_vraiment_flat_152.wav,1,True,1599,70,M,0,0.000000,-121.409464
06121953,46,0,2024-03-02T11:21:49.353Z,male_vraiment_flat_152.wav,1,True,1599,70,M,1,0.071043,26.229918
06121953,46,0,2024-03-02T11:21:49.353Z,male_vraiment_flat_152.wav,1,True,1599,70,M,2,0.142086,46.107283
06121953,46,0,2024-03-02T11:21:49.353Z,male_vraiment_flat_152.wav,1,True,1599,70,M,3,0.213129,-122.378424
06121953,46,0,2024-03-02T11:21:49.353Z,male_vraiment_flat_152.wav,1,True,1599,70,M,4,0.284172,64.911076
06121953,46,0,2024-03-02T11:21:49.353Z,male_vraiment_flat_152.wav,1,True,1599,70,M,5,0.355215,129.744578
06121953,46,0,2024-03-02T11:21:49.353Z,male_vraiment_flat_152.wav,1,True,1599,70,M,6,0.426259,51.632825
06121953,47,0,2024-03-02T11:21:49.353Z,male_vraiment_flat_149.wav,0,False,1432,70,M,0,0.000000,17.402596
06121953,47,0,2024-03-02T11:21:49.353Z,male_vraiment_flat_149.wav,0,False,1432,70,M,1,0.071043,-44.390985
06121953,47,0,2024-03-02T11:21:49.353Z,male_vraiment_flat_149.wav,0,False,1432,70,M,2,0.142086,-32.370244
06121953,47,0,2024-03-02T11:21:49.353Z,male_vraiment_flat_149.wav,0,False,1432,70,M,3,0.213129,33.896100
06121953,47,0,2024-03-02T11:21:49.353Z,male_vraiment_flat_149.wav,0,False,1432,70,M,4,0.284172,130.098177
06121953,47,0,2024-03-02T11:21:49.353Z,male_vraiment_flat_149.wav,0,False,1432,70,M,5,0.355215,-117.346579
06121953,47,0,2024-03-02T11:21:49.353Z,male_vraiment_flat_149.wav,0,False,1432,70,M,6,0.426259,65.375118
06121953,47,0,2024-03-02T11:21:49.353Z,male_vraiment_flat_67.wav,1,True,1432,70,M,0,0.000000,3.293259
06121953,47,0,2024-03-02T11:21:49.353Z,male_vraiment_flat_67.wav,1,True,1432,70,M,1,0.071043,-46.547477
06121953,47,0,2024-03-02T11:21:49.353Z,male_vraiment_flat_67.wav,1,True,1432,70,M,2,0.142086,54.624069
06121953,47,0,2024-03-02T11:21:49.353Z,male_vraiment_flat_67.wav,1,True,1432,70,M,3,0.213129,-46.025939
06121953,47,0,2024-03-02T11:21:49.353Z,male_vraiment_flat_67.wav,1,True,1432,70,M,4,0.284172,70.704507
06121953,47,0,2024-03-02T11:21:49.353Z,male_vraiment_flat_67.wav,1,True,1432,70,M,5,0.355215,-47.199237
06121953,47,0,2024-03-02T11:21:49.353Z,male_vraiment_flat_67.wav,1,True,1432,70,M,6,0.426259,147.575842
06121953,48,0,2024-03-02T11:21:49.353Z,male_vraiment_flat_196.wav,0,False,680,70,M,0,0.000000,-42.342747
06121953,48,0,2024-03-02T11:21:49.353Z,male_vraiment_flat_196.wav,0,False,680,70,M,1,0.071043,-81.868734
06121953,48,0,2024-03-02T11:21:49.353Z,male_vraiment_flat_196.wav,0,False,680,70,M,2,0.142086,-18.906552
06121953,48,0,2024-03-02T11:21:49.353Z,male_vraiment_flat_196.wav,0,False,680,70,M,3,0.213129,-18.852092
06121953,48,0,2024-03-02T11:21:49.353Z,male_vraiment_flat_196.wav,0,False,680,70,M,4,0.284172,52.116670
06121953,48,0,2024-03-02T11:21:49.353Z,male_vraiment_flat_196.wav,0,False,680,70,M,5,0.355215,90.577409
06121953,48,0,2024-03-02T11:21:49.353Z,male_vraiment_flat_196.wav,0,False,680,70,M,6,0.426259,29.772760
06121953,48,0,2024-03-02T11:21:49.353Z,male_vraiment_flat_74.wav,1,True,680,70,M,0,0.000000,71.293232
06121953,48,0,2024-03-02T11:21:49.353Z,male_vraiment_flat_74.wav,1,True,680,70,M,1,0.071043,32.860121
06121953,48,0,2024-03-02T11:21:49.353Z,male_vraiment_flat_74.wav,1,True,680,70,M,2,0.142086,-85.825735
06121953,48,0,2024-03-02T11:21:49.353Z,male_vraiment_flat_74.wav,1,True,680,70,M,3,0.213129,70.628085
06121953,48,0,2024-03-02T11:21:49.353Z,male_vraiment_flat_74.wav,1,True,680,70,M,4,0.284172,126.928038
06121953,48,0,2024-03-02T11:21:49.353Z,male_vraiment_flat_74.wav,1,True,680,70,M,5,0.355215,120.083362
06121953,48,0,2024-03-02T11:21:49.353Z,male_vraiment_flat_74.wav,1,True,680,70,M,6,0.426259,92.661740
06121953,49,0,2024-03-02T11:21:49.353Z,male_vraiment_flat_189.wav,0,True,1585,70,M,0,0.000000,53.448621
06121953,49,0,2024-03-02T11:21:49.353Z,male_vraiment_flat_189.wav,0,True,1585,70,M,1,0.071043,82.292801
06121953,49,0,2024-03-02T11:21:49.353Z,male_vraiment_flat_189.wav,0,True,1585,70,M,2,0.142086,-89.509706
06121953,49,0,2024-03-02T11:21:49.353Z,male_vraiment_flat_189.wav,0,True,1585,70,M,3,0.213129,61.203077
06121953,49,0,2024-03-02T11:21:49.353Z,male_vraiment_flat_189.wav,0,True,1585,70,M,4,0.284172,-64.080431
06121953,49,0,2024-03-02T11:21:49.353Z,male_vraiment_flat_189.wav,0,True,1585,70,M,5,0.355215,71.408242
06121953,49,0,2024-03-02T11:21:49.353Z,male_vraiment_flat_189.wav,0,True,1585,70,M,6,0.426259,-96.299976
06121953,49,0,2024-03-02T11:21:49.353Z,male_vraiment_flat_41.wav,1,False,1585,70,M,0,0.000000,-40.071689
06121953,49,0,2024-03-02T11:21:49.353Z,male_vraiment_flat_41.wav,1,False,1585,70,M,1,0.071043,-31.963638
06121953,49,0,2024-03-02T11:21:49.353Z,male_vraiment_flat_41.wav,1,False,1585,70,M,2,0.142086,-69.463296
06121953,49,0,2024-03-02T11:21:49.353Z,male_vraiment_flat_41.wav,1,False,1585,70,M,3,0.213129,-118.841278
06121953,49,0,2024-03-02T11:21:49.353Z,male_vraiment_flat_41.wav,1,False,1585,70,M,4,0.284172,80.615651
06121953,49,0,2024-03-02T11:21:49.353Z,male_vraiment_flat_41.wav,1,False,1585,70,M,5,0.355215,-132.443518
06121953,49,0,2024-03-02T11:21:49.353Z,male_vraiment_flat_41.wav,1,False,1585,70,M,6,0.426259,21.803113
06121953,50,1,2024-03-02T11:21:49.353Z,male_vraiment_flat_135.wav,0,True,941,70,M,0,0.000000,69.664553
06121953,50,1,2024-03-02T11:21:49.353Z,male_vraiment_flat_135.wav,0,True,941,70,M,1,0.071043,-40.692966
06121953,50,1,2024-03-02T11:21:49.353Z,male_vraiment_flat_135.wav,0,True,941,70,M,2,0.142086,-94.283336
06121953,50,1,2024-03-02T11:21:49.353Z,male_vraiment_flat_135.wav,0,True,941,70,M,3,0.213129,7.777910
06121953,50,1,2024-03-02T11:21:49.353Z,male_vraiment_flat_135.wav,0,True,941,70,M,4,0.284172,26.713191
06121953,50,1,2024-03-02T11:21:49.353Z,male_vraiment_flat_135.wav,0,True,941,70,M,5,0.355215,137.292776
06121953,50,1,2024-03-02T11:21:49.353Z,male_vraiment_flat_135.wav,0,True,941,70,M,6,0.426259,-136.153804
06121953,50,1,2024-03-02T11:21:49.353Z,male_vraiment_flat_168.wav,1,False,941,70,M,0,0.000000,20.996757
06121953,50,1,2024-03-02T11:21:49.353Z,male_vraiment_flat_168.wav,1,False,941,70,M,1,0.071043,53.221671
06121953,50,1,2024-03-02T11:21:49.353Z,male_vraiment_flat_168.wav,1,False,941,70,M,2,0.142086,15.731623
06121953,50,1,2024-03-02T11:21:49.353Z,male_vraiment_flat_168.wav,1,False,941,70,M,3,0.213129,99.382807
06121953,50,1,2024-03-02T11:21:49.353Z,male_vraiment_flat_168.wav,1,False,941,70,M,4,0.284172,-57.914754
06121953,50,1,2024-03-02T11:21:49.353Z,male_vraiment_flat_168.wav,1,False,941,70,M,5,0.355215,26.961730
06121953,50,1,2024-03-02T11:21:49.353Z,male_vraiment_flat_168.wav,1,False,941,70,M,6,0.426259,-63.149674
06121953,51,1,2024-03-02T11:21:49.353Z,male_vraiment_flat_131.wav,0,True,858,70,M,0,0.000000,107.175705
06121953,51,1,2024-03-02T11:21:49.353Z,male_vraiment_flat_131.wav,0,True,858,70,M,1,0.071043,81.997533
06121953,51,1,2024-03-02T11:21:49.353Z,male_vraiment_flat_131.wav,0,True,858,70,M,2,0.142086,53.236564
06121953,51,1,2024-03-02T11:21:49.353Z,male_vraiment_flat_131.wav,0,True,858,70,M,3,0.213129,108.962563
06121953,51,1,2024-03-02T11:21:49.353Z,male_vraiment_flat_131.wav,0,True,858,70,M,4,0.284172,-22.910156
06121953,51,1,2024-03-02T11:21:49.353Z,male_vraiment_flat_131.wav,0,True,858,70,M,5,0.355215,133.743101
06121953,51,1,2024-03-02T11:21:49.353Z,male_vraiment_flat_131.wav,0,True,858,70,M,6,0.426259,98.652547
06121953,51,1,2024-03-02T11:21:49.353Z,male_vraiment_flat_193.wav,1,False,858,70,M,0,0.000000,-104.498046
06121953,51,1,2024-03-02T11:21:49.353Z,male_vraiment_flat_193.wav,1,False,858,70,M,1,0.071043,27.454942
06121953,51,1,2024-03-02T11:21:49.353Z,male_vraiment_flat_193.wav,1,False,858,70,M,2,0.142086,-81.084240
06121953,51,1,2024-03-02T11:21:49.353Z,male_vraiment_flat_193.wav,1,False,858,70,M,3,0.213129,-66.105426
06121953,51,1,2024-03-02T11:21:49.353Z,male_vraiment_flat_193.wav,1,False,858,70,M,4,0.284172,-18.843418
06121953,51,1,2024-03-02T11:21:49.353Z,male_vraiment_flat_193.wav,1,False,858,70,M,5,0.355215,59.447118
06121953,51,1,2024-03-02T11:21:49.353Z,male_vraiment_flat_193.wav,1,False,858,70,M,6,0.426259,86.357299
06121953,52,1,2024-03-02T11:21:49.353Z,male_vraiment_flat_138.wav,0,True,916,70,M,0,0.000000,-29.536298
06121953,52,1,2024-03-02T11:21:49.353Z,male_vraiment_flat_138.wav,0,True,916,70,M,1,0.071043,90.685935
06121953,52,1,2024-03-02T11:21:49.353Z,male_vraiment_flat_138.wav,0,True,916,70,M,2,0.142086,-77.044346
06121953,52,1,2024-03-02T11:21:49.353Z,male_vraiment_flat_138.wav,0,True,916,70,M,3,0.213129,-75.264885
06121953,52,1,2024-03-02T11:21:49.353Z,male_vraiment_flat_138.wav,0,True,916,70,M,4,0.284172,-129.490236
06121953,52,1,2024-03-02T11:21:49.353Z,male_vraiment_flat_138.wav,0,True,916,70,M,5,0.355215,-48.940612
06121953,52,1,2024-03-02T11:21:49.353Z,male_vraiment_flat_138.wav,0,True,916,70,M,6,0.426259,-95.647001
06121953,52,1,2024-03-02T11:21:49.353Z,male_vraiment_flat_65.wav,1,False,916,70,M,0,0.000000,104.278510
06121953,52,1,2024-03-02T11:21:49.353Z,male_vraiment_flat_65.wav,1,False,916,70,M,1,0.071043,120.742750
06121953,52,1,2024-03-02T11:21:49.353Z,male_vraiment_flat_65.wav,1,False,916,70,M,2,0.142086,116.963717
06121953,52,1,2024-03-02T11:21:49.353Z,male_vraiment_flat_65.wav,1,False,916,70,M,3,0.213129,-30.167489
06121953,52,1,2024-03-02T11:21:49.353Z,male_vraiment_flat_65.wav,1,False,916,70,M,4,0.284172,58.482575
06121953,52,1,2024-03-02T11:21:49.353Z,male_vraiment_flat_65.wav,1,False,916,70,M,5,0.355215,-35.240720
06121953,52,1,2024-03-02T11:21:49.353Z,male_vraiment_flat_65.wav,1,False,916,70,M,6,0.426259,-49.851341
06121953,53,1,2024-03-02T11:21:49.353Z,male_vraiment_flat_57.wav,0,True,651,70,M,0,0.000000,-38.971396
06121953,53,1,2024-03-02T11:21:49.353Z,male_vraiment_flat_57.wav,0,True,651,70,M,1,0.071043,127.210639
06121953,53,1,2024-03-02T11:21:49.353Z,male_vraiment_flat_57.wav,0,True,651,70,M,2,0.142086,-100.465383
06121953,53,1,2024-03-02T11:21:49.353Z,male_vraiment_flat_57.wav,0,True,651,70,M,3,0.213129,-139.526819
06121953,53,1,2024-03-02T11:21:49.353Z,male_vraiment_flat_57.wav,0,True,651,70,M,4,0.284172,-149.467980
06121953,53,1,2024-03-02T11:21:49.353Z,male_vraiment_flat_57.wav,0,True,651,70,M,5,0.355215,-50.432071
06121953,53,1,2024-03-02T11:21:49.353Z,male_vraiment_flat_57.wav,0,True,651,70,M,6,0.426259,15.305878
06121953,53,1,2024-03-02T11:21:49.353Z,male_vraiment_flat_172.wav,1,False,651,70,M,0,0.000000,-63.308139
06121953,53,1,2024-03-02T11:21:49.353Z,male_vraiment_flat_172.wav,1,False,651,70,M,1,0.071043,-111.693367
06121953,53,1,2024-03-02T11:21:49.353Z,male_vraiment_flat_172.wav,1,False,651,70,M,2,0.142086,-61.444624
06121953,53,1,2024-03-02T11:21:49.353Z,male_vraiment_flat_172.wav,1,False,651,70,M,3,0.213129,137.201589
06121953,53,1,2024-03-02T11:21:49.353Z,male_vraiment_flat_172.wav,1,False,651,70,M,4,0.284172,-132.973462
06121953,53,1,2024-03-02T11:21:49.353Z,male_vraiment_flat_172.wav,1,False,651,70,M,5,0.355215,-126.405577
06121953,53,1,2024-03-02T11:21:49.353Z,male_vraiment_flat_172.wav,1,False,651,70,M,6,0.426259,-119.840486
06121953,54,1,2024-03-02T11:21:49.353Z,male_vraiment_flat_174.wav,0,False,1030,70,M,0,0.000000,12.449350
06121953,54,1,2024-03-02T11:21:49.353Z,male_vraiment_flat_174.wav,0,False,1030,70,M,1,0.071043,17.986555
06121953,54,1,2024-03-02T11:21:49.353Z,male_vraiment_flat_174.wav,0,False,1030,70,M,2,0.142086,-72.720888
06121953,54,1,2024-03-02T11:21:49.353Z,male_vraiment_flat_174.wav,0,False,1030,70,M,3,0.213129,41.369679
06121953,54,1,2024-03-02T11:21:49.353Z,male_vraiment_flat_174.wav,0,False,1030,70,M,4,0.284172,-146.787018
06121953,54,1,2024-03-02T11:21:49.353Z,male_vraiment_flat_174.wav,0,False,1030,70,M,5,0.355215,3.271800
06121953,54,1,2024-03-02T11:21:49.353Z,male_vraiment_flat_174.wav,0,False,1030,70,M,6,0.426259,26.686198
06121953,54,1,2024-03-02T11:21:49.353Z,male_vraiment_flat_184.wav,1,True,1030,70,M,0,0.000000,86.245131
06121953,54,1,2024-03-02T11:21:49.353Z,male_vraiment_flat_184.wav,1,True,1030,70,M,1,0.071043,106.604050
06121953,54,1,2024-03-02T11:21:49.353Z,male_vraiment_flat_184.wav,1,True,1030,70,M,2,0.142086,-48.425154
06121953,54,1,2024-03-02T11:21:49.353Z,male_vraiment_flat_184.wav,1,True,1030,70,M,3,0.213129,48.927001
06121953,54,1,2024-03-02T11:21:49.353Z,male_vraiment_flat_184.wav,1,True,1030,70,M,4,0.284172,-82.972934
06121953,54,1,2024-03-02T11:21:49.353Z,male_vraiment_flat_184.wav,1,True,1030,70,M,5,0.355215,73.552976
06121953,54,1,2024-03-02T11:21:49.353Z,male_vraiment_flat_184.wav,1,True,1030,70,M,6,0.426259,-131.359115
06121953,55,1,2024-03-02T11:21:49.353Z,male_vraiment_flat_0.wav,0,True,1047,70,M,0,0.000000,9.896041
06121953,55,1,2024-03-02T11:21:49.353Z,male_vraiment_flat_0.wav,0,True,1047,70,M,1,0.071043,101.528400
06121953,55,1,2024-03-02T11:21:49.353Z,male_vraiment_flat_0.wav,0,True,1047,70,M,2,0.142086,-68.097850
06121953,55,1,2024-03-02T11:21:49.353Z,male_vraiment_flat_0.wav,0,True,1047,70,M,3,0.213129,-142.658303
06121953,55,1,2024-03-02T11:21:49.353Z,male_vraiment_flat_0.wav,0,True,1047,70,M,4,0.284172,-120.248224
06121953,55,1,2024-03-02T11:21:49.353Z,male_vraiment_flat_0.wav,0,True,1047,70,M,5,0.355215,31.293845
06121953,55,1,2024-03-02T11:21:49.353Z,male_vraiment_flat_0.wav,0,True,1047,70,M,6,0.426259,-137.250528
06121953,55,1,2024-03-02T11:21:49.353Z,male_vraiment_flat_150.wav,1,False,1047,70,M,0,0.000000,-0.845919
06121953,55,1,2024-03-02T11:21:49.353Z,male_vraiment_flat_150.wav,1,False,1047,70,M,1,0.071043,-101.665398
06121953,55,1,2024-03-02T11:21:49.353Z,male_vraiment_flat_150.wav,1,False,1047,70,M,2,0.142086,-128.909269
06121953,55,1,2024-03-02T11:21:49.353Z,male_vraiment_flat_150.wav,1,False,1047,70,M,3,0.213129,-98.956601
06121953,55,1,2024-03-02T11:21:49.353Z,male_vraiment_flat_150.wav,1,False,1047,70,M,4,0.284172,-120.693020
06121953,55,1,2024-03-02T11:21:49.353Z,male_vraiment_flat_150.wav,1,False,1047,70,M,5,0.355215,-126.286795
06121953,55,1,2024-03-02T11:21:49.353Z,male_vraiment_flat_150.wav,1,False,1047,70,M,6,0.426259,121.368949
06121953,56,1,2024-03-02T11:21:49.353Z,male_vraiment_flat_28.wav,0,False,2460,70,M,0,0.000000,82.321174
06121953,56,1,2024-03-02T11:21:49.353Z,male_vraiment_flat_28.wav,0,False,2460,70,M,1,0.071043,-139.171806
06121953,56,1,2024-03-02T11:21:49.353Z,male_vraiment_flat_28.wav,0,False,2460,70,M,2,0.142086,-25.451767
06121953,56,1,2024-03-02T11:21:49.353Z,male_vraiment_flat_28.wav,0,False,2460,70,M,3,0.213129,-113.179723
06121953,56,1,2024-03-02T11:21:49.353Z,male_vraiment_flat_28.wav,0,False,2460,70,M,4,0.284172,-97.955774
06121953,56,1,2024-03-02T11:21:49.353Z,male_vraiment_flat_28.wav,0,False,2460,70,M,5,0.355215,43.444463
06121953,56,1,2024-03-02T11:21:49.353Z,male_vraiment_flat_28.wav,0,False,2460,70,M,6,0.426259,-9.291608
06121953,56,1,2024-03-02T11:21:49.353Z,male_vraiment_flat_121.wav,1,True,2460,70,M,0,0.000000,-58.637887
06121953,56,1,2024-03-02T11:21:49.353Z,male_vraiment_flat_121.wav,1,True,2460,70,M,1,0.071043,-104.347196
06121953,56,1,2024-03-02T11:21:49.353Z,male_vraiment_flat_121.wav,1,True,2460,70,M,2,0.142086,149.905377
06121953,56,1,2024-03-02T11:21:49.353Z,male_vraiment_flat_121.wav,1,True,2460,70,M,3,0.213129,-98.681631
06121953,56,1,2024-03-02T11:21:49.353Z,male_vraiment_flat_121.wav,1,True,2460,70,M,4,0.284172,-147.265274
06121953,56,1,2024-03-02T11:21:49.353Z,male_vraiment_flat_121.wav,1,True,2460,70,M,5,0.355215,64.587538
06121953,56,1,2024-03-02T11:21:49.353Z,male_vraiment_flat_121.wav,1,True,2460,70,M,6,0.426259,26.674605
06121953,57,1,2024-03-02T11:21:49.353Z,male_vraiment_flat_195.wav,0,False,589,70,M,0,0.000000,-54.423844
06121953,57,1,2024-03-02T11:21:49.353Z,male_vraiment_flat_195.wav,0,False,589,70,M,1,0.071043,81.067183
06121953,57,1,2024-03-02T11:21:49.353Z,male_vraiment_flat_195.wav,0,False,589,70,M,2,0.142086,-60.396049
06121953,57,1,2024-03-02T11:21:49.353Z,male_vraiment_flat_195.wav,0,False,589,70,M,3,0.213129,-65.685418
06121953,57,1,2024-03-02T11:21:49.353Z,male_vraiment_flat_195.wav,0,False,589,70,M,4,0.284172,141.607211
06121953,57,1,2024-03-02T11:21:49.353Z,male_vraiment_flat_195.wav,0,False,589,70,M,5,0.355215,37.879388
06121953,57,1,2024-03-02T11:21:49.353Z,male_vraiment_flat_195.wav,0,False,589,70,M,6,0.426259,-52.972183
06121953,57,1,2024-03-02T11:21:49.353Z,male_vraiment_flat_58.wav,1,True,589,70,M,0,0.000000,-52.909251
06121953,57,1,2024-03-02T11:21:49.353Z,male_vraiment_flat_58.wav,1,True,589,70,M,1,0.071043,-4.560860
06121953,57,1,2024-03-02T11:21:49.353Z,male_vraiment_flat_58.wav,1,True,589,70,M,2,0.142086,-106.285240
06121953,57,1,2024-03-02T11:21:49.353Z,male_vraiment_flat_58.wav,1,True,589,70,M,3,0.213129,-64.474310
06121953,57,1,2024-03-02T11:21:49.353Z,male_vraiment_flat_58.wav,1,True,589,70,M,4,0.284172,-121.964639
06121953,57,1,2024-03-02T11:21:49.353Z,male_vraiment_flat_58.wav,1,True,589,70,M,5,0.355215,35.204504
06121953,57,1,2024-03-02T11:21:49.353Z,male_vraiment_flat_58.wav,1,True,589,70,M,6,0.426259,-7.933790
06121953,58,1,2024-03-02T11:21:49.353Z,male_vraiment_flat_122.wav,0,False,710,70,M,0,0.000000,-51.664448
06121953,58,1,2024-03-02T11:21:49.353Z,male_vraiment_flat_122.wav,0,False,710,70,M,1,0.071043,-83.789448
06121953,58,1,2024-03-02T11:21:49.353Z,male_vraiment_flat_122.wav,0,False,710,70,M,2,0.142086,-129.204529
06121953,58,1,2024-03-02T11:21:49.353Z,male_vraiment_flat_122.wav,0,False,710,70,M,3,0.213129,-2.729810
06121953,58,1,2024-03-02T11:21:49.353Z,male_vraiment_flat_122.wav,0,False,710,70,M,4,0.284172,-63.338530
06121953,58,1,2024-03-02T11:21:49.353Z,male_vraiment_flat_122.wav,0,False,710,70,M,5,0.355215,57.342517
06121953,58,1,2024-03-02T11:21:49.353Z,male_vraiment_flat_122.wav,0,False,710,70,M,6,0.426259,30.309816
06121953,58,1,2024-03-02T11:21:49.353Z,male_vraiment_flat_59.wav,1,True,710,70,M,0,0.000000,-36.418372
06121953,58,1,2024-03-02T11:21:49.353Z,male_vraiment_flat_59.wav,1,True,710,70,M,1,0.071043,84.104587
06121953,58,1,2024-03-02T11:21:49.353Z,male_vraiment_flat_59.wav,1,True,710,70,M,2,0.142086,132.070943
06121953,58,1,2024-03-02T11:21:49.353Z,male_vraiment_flat_59.wav,1,True,710,70,M,3,0.213129,-36.088233
06121953,58,1,2024-03-02T11:21:49.353Z,male_vraiment_flat_59.wav,1,True,710,70,M,4,0.284172,-93.351425
06121953,58,1,2024-03-02T11:21:49.353Z,male_vraiment_flat_59.wav,1,True,710,70,M,5,0.355215,57.665522
06121953,58,1,2024-03-02T11:21:49.353Z,male_vraiment_flat_59.wav,1,True,710,70,M,6,0.426259,137.323922
06121953,59,1,2024-03-02T11:21:49.353Z,male_vraiment_flat_89.wav,0,False,868,70,M,0,0.000000,109.966045
06121953,59,1,2024-03-02T11:21:49.353Z,male_vraiment_flat_89.wav,0,False,868,70,M,1,0.071043,3.952874
06121953,59,1,2024-03-02T11:21:49.353Z,male_vraiment_flat_89.wav,0,False,868,70,M,2,0.142086,14.687736
06121953,59,1,2024-03-02T11:21:49.353Z,male_vraiment_flat_89.wav,0,False,868,70,M,3,0.213129,-59.041416
06121953,59,1,2024-03-02T11:21:49.353Z,male_vraiment_flat_89.wav,0,False,868,70,M,4,0.284172,-42.151762
06121953,59,1,2024-03-02T11:21:49.353Z,male_vraiment_flat_89.wav,0,False,868,70,M,5,0.355215,-148.779325
06121953,59,1,2024-03-02T11:21:49.353Z,male_vraiment_flat_89.wav,0,False,868,70,M,6,0.426259,-61.315288
06121953,59,1,2024-03-02T11:21:49.353Z,male_vraiment_flat_179.wav,1,True,868,70,M,0,0.000000,31.793897
06121953,59,1,2024-03-02T11:21:49.353Z,male_vraiment_flat_179.wav,1,True,868,70,M,1,0.071043,-7.766660
06121953,59,1,2024-03-02T11:21:49.353Z,male_vraiment_flat_179.wav,1,True,868,70,M,2,0.142086,14.202215
06121953,59,1,2024-03-02T11:21:49.353Z,male_vraiment_flat_179.wav,1,True,868,70,M,3,0.213129,-28.726082
06121953,59,1,2024-03-02T11:21:49.353Z,male_vraiment_flat_179.wav,1,True,868,70,M,4,0.284172,-38.298342
06121953,59,1,2024-03-02T11:21:49.353Z,male_vraiment_flat_179.wav,1,True,868,70,M,5,0.355215,97.025797
06121953,59,1,2024-03-02T11:21:49.353Z,male_vraiment_flat_179.wav,1,True,868,70,M,6,0.426259,-148.112175
06121953,60,1,2024-03-02T11:21:49.353Z,male_vraiment_flat_30.wav,0,False,658,70,M,0,0.000000,32.600333
06121953,60,1,2024-03-02T11:21:49.353Z,male_vraiment_flat_30.wav,0,False,658,70,M,1,0.071043,42.125884
06121953,60,1,2024-03-02T11:21:49.353Z,male_vraiment_flat_30.wav,0,False,658,70,M,2,0.142086,124.172285
06121953,60,1,2024-03-02T11:21:49.353Z,male_vraiment_flat_30.wav,0,False,658,70,M,3,0.213129,52.679052
06121953,60,1,2024-03-02T11:21:49.353Z,male_vraiment_flat_30.wav,0,False,658,70,M,4,0.284172,-111.889461
06121953,60,1,2024-03-02T11:21:49.353Z,male_vraiment_flat_30.wav,0,False,658,70,M,5,0.355215,64.478579
06121953,60,1,2024-03-02T11:21:49.353Z,male_vraiment_flat_30.wav,0,False,658,70,M,6,0.426259,22.023880
06121953,60,1,2024-03-02T11:21:49.353Z,male_vraiment_flat_53.wav,1,True,658,70,M,0,0.000000,12.794375
06121953,60,1,2024-03-02T11:21:49.353Z,male_vraiment_flat_53.wav,1,True,658,70,M,1,0.071043,72.488609
06121953,60,1,2024-03-02T11:21:49.353Z,male_vraiment_flat_53.wav,1,True,658,70,M,2,0.142086,82.753367
06121953,60,1,2024-03-02T11:21:49.353Z,male_vraiment_flat_53.wav,1,True,658,70,M,3,0.213129,-11.724600
06121953,60,1,2024-03-02T11:21:49.353Z,male_vraiment_flat_53.wav,1,True,658,70,M,4,0.284172,8.499299
06121953,60,1,2024-03-02T11:21:49.353Z,male_vraiment_flat_53.wav,1,True,658,70,M,5,0.355215,84.468722
06121953,60,1,2024-03-02T11:21:49.353Z,male_vraiment_flat_53.wav,1,True,658,70,M,6,0.426259,-88.580062
06121953,61,1,2024-03-02T11:21:49.353Z,male_vraiment_flat_105.wav,0,False,346,70,M,0,0.000000,125.556012
06121953,61,1,2024-03-02T11:21:49.353Z,male_vraiment_flat_105.wav,0,False,346,70,M,1,0.071043,102.885047
06121953,61,1,2024-03-02T11:21:49.353Z,male_vraiment_flat_105.wav,0,False,346,70,M,2,0.142086,-23.318884
06121953,61,1,2024-03-02T11:21:49.353Z,male_vraiment_flat_105.wav,0,False,346,70,M,3,0.213129,96.270063
06121953,61,1,2024-03-02T11:21:49.353Z,male_vraiment_flat_105.wav,0,False,346,70,M,4,0.284172,-32.661499
06121953,61,1,2024-03-02T11:21:49.353Z,male_vraiment_flat_105.wav,0,False,346,70,M,5,0.355215,-7.829717
06121953,61,1,2024-03-02T11:21:49.353Z,male_vraiment_flat_105.wav,0,False,346,70,M,6,0.426259,-13.047753
06121953,61,1,2024-03-02T11:21:49.353Z,male_vraiment_flat_77.wav,1,True,346,70,M,0,0.000000,-123.489900
06121953,61,1,2024-03-02T11:21:49.353Z,male_vraiment_flat_77.wav,1,True,346,70,M,1,0.071043,8.804262
06121953,61,1,2024-03-02T11:21:49.353Z,male_vraiment_flat_77.wav,1,True,346,70,M,2,0.142086,-15.205517
06121953,61,1,2024-03-02T11:21:49.353Z,male_vraiment_flat_77.wav,1,True,346,70,M,3,0.213129,7.550940
06121953,61,1,2024-03-02T11:21:49.353Z,male_vraiment_flat_77.wav,1,True,346,70,M,4,0.284172,97.551926
06121953,61,1,2024-03-02T11:21:49.353Z,male_vraiment_flat_77.wav,1,True,346,70,M,5,0.355215,56.352460
06121953,61,1,2024-03-02T11:21:49.353Z,male_vraiment_flat_77.wav,1,True,346,70,M,6,0.426259,-146.779345
06121953,62,1,2024-03-02T11:21:49.353Z,male_vraiment_flat_140.wav,0,False,565,70,M,0,0.000000,-149.304179
06121953,62,1,2024-03-02T11:21:49.353Z,male_vraiment_flat_140.wav,0,False,565,70,M,1,0.071043,148.600586
06121953,62,1,2024-03-02T11:21:49.353Z,male_vraiment_flat_140.wav,0,False,565,70,M,2,0.142086,-115.715849
06121953,62,1,2024-03-02T11:21:49.353Z,male_vraiment_flat_140.wav,0,False,565,70,M,3,0.213129,139.265939
06121953,62,1,2024-03-02T11:21:49.353Z,male_vraiment_flat_140.wav,0,False,565,70,M,4,0.284172,45.121427
06121953,62,1,2024-03-02T11:21:49.353Z,male_vraiment_flat_140.wav,0,False,565,70,M,5,0.355215,-93.318951
06121953,62,1,2024-03-02T11:21:49.353Z,male_vraiment_flat_140.wav,0,False,565,70,M,6,0.426259,-66.215565
06121953,62,1,2024-03-02T11:21:49.353Z,male_vraiment_flat_194.wav,1,True,565,70,M,0,0.000000,104.124735
06121953,62,1,2024-03-02T11:21:49.353Z,male_vraiment_flat_194.wav,1,True,565,70,M,1,0.071043,-92.067392
06121953,62,1,2024-03-02T11:21:49.353Z,male_vraiment_flat_194.wav,1,True,565,70,M,2,0.142086,-108.808255
06121953,62,1,2024-03-02T11:21:49.353Z,male_vraiment_flat_194.wav,1,True,565,70,M,3,0.213129,99.267416
06121953,62,1,2024-03-02T11:21:49.353Z,male_vraiment_flat_194.wav,1,True,565,70,M,4,0.284172,-26.685302
06121953,62,1,2024-03-02T11:21:49.353Z,male_vraiment_flat_194.wav,1,True,565,70,M,5,0.355215,97.824367
06121953,62,1,2024-03-02T11:21:49.353Z,male_vraiment_flat_194.wav,1,True,565,70,M,6,0.426259,-69.402109
06121953,63,1,2024-03-02T11:21:49.353Z,male_vraiment_flat_182.wav,0,False,661,70,M,0,0.000000,20.855134
06121953,63,1,2024-03-02T11:21:49.353Z,male_vraiment_flat_182.wav,0,False,661,70,M,1,0.071043,131.000404
06121953,63,1,2024-03-02T11:21:49.353Z,male_vraiment_flat_182.wav,0,False,661,70,M,2,0.142086,-24.691908
06121953,63,1,2024-03-02T11:21:49.353Z,male_vraiment_flat_182.wav,0,False,661,70,M,3,0.213129,128.422786
06121953,63,1,2024-03-02T11:21:49.353Z,male_vraiment_flat_182.wav,0,False,661,70,M,4,0.284172,-128.848387
06121953,63,1,2024-03-02T11:21:49.353Z,male_vraiment_flat_182.wav,0,False,661,70,M,5,0.355215,118.792618
06121953,63,1,2024-03-02T11:21:49.353Z,male_vraiment_flat_182.wav,0,False,661,70,M,6,0.426259,-92.475253
06121953,63,1,2024-03-02T11:21:49.353Z,male_vraiment_flat_24.wav,1,True,661,70,M,0,0.000000,-144.276814
06121953,63,1,2024-03-02T11:21:49.353Z,male_vraiment_flat_24.wav,1,True,661,70,M,1,0.071043,-59.436611
06121953,63,1,2024-03-02T11:21:49.353Z,male_vraiment_flat_24.wav,1,True,661,70,M,2,0.142086,45.565590
06121953,63,1,2024-03-02T11:21:49.353Z,male_vraiment_flat_24.wav,1,True,661,70,M,3,0.213129,19.626340
06121953,63,1,2024-03-02T11:21:49.353Z,male_vraiment_flat_24.wav,1,True,661,70,M,4,0.284172,-127.586662
06121953,63,1,2024-03-02T11:21:49.353Z,male_vraiment_flat_24.wav,1,True,661,70,M,5,0.355215,59.214853
06121953,63,1,2024-03-02T11:21:49.353Z,male_vraiment_flat_24.wav,1,True,661,70,M,6,0.426259,-70.996219
06121953,64,1,2024-03-02T11:21:49.353Z,male_vraiment_flat_7.wav,0,False,780,70,M,0,0.000000,43.823319
06121953,64,1,2024-03-02T11:21:49.353Z,male_vraiment_flat_7.wav,0,False,780,70,M,1,0.071043,72.049148
06121953,64,1,2024-03-02T11:21:49.353Z,male_vraiment_flat_7.wav,0,False,780,70,M,2,0.142086,-136.415247
06121953,64,1,2024-03-02T11:21:49.353Z,male_vraiment_flat_7.wav,0,False,780,70,M,3,0.213129,44.015310
06121953,64,1,2024-03-02T11:21:49.353Z,male_vraiment_flat_7.wav,0,False,780,70,M,4,0.284172,7.208530
06121953,64,1,2024-03-02T11:21:49.353Z,male_vraiment_flat_7.wav,0,False,780,70,M,5,0.355215,18.587432
06121953,64,1,2024-03-02T11:21:49.353Z,male_vraiment_flat_7.wav,0,False,780,70,M,6,0.426259,60.126473
06121953,64,1,2024-03-02T11:21:49.353Z,male_vraiment_flat_78.wav,1,True,780,70,M,0,0.000000,80.055785
06121953,64,1,2024-03-02T11:21:49.353Z,male_vraiment_flat_78.wav,1,True,780,70,M,1,0.071043,117.831593
06121953,64,1,2024-03-02T11:21:49.353Z,male_vraiment_flat_78.wav,1,True,780,70,M,2,0.142086,-32.666549
06121953,64,1,2024-03-02T11:21:49.353Z,male_vraiment_flat_78.wav,1,True,780,70,M,3,0.213129,67.905321
06121953,64,1,2024-03-02T11:21:49.353Z,male_vraiment_flat_78.wav,1,True,780,70,M,4,0.284172,84.716683
06121953,64,1,2024-03-02T11:21:49.353Z,male_vraiment_flat_78.wav,1,True,780,70,M,5,0.355215,30.832945
06121953,64,1,2024-03-02T11:21:49.353Z,male_vraiment_flat_78.wav,1,True,780,70,M,6,0.426259,87.837740
06121953,65,1,2024-03-02T11:21:49.353Z,male_vraiment_flat_153.wav,0,False,1024,70,M,0,0.000000,-62.105340
06121953,65,1,2024-03-02T11:21:49.353Z,male_vraiment_flat_153.wav,0,False,1024,70,M,1,0.071043,-52.997588
06121953,65,1,2024-03-02T11:21:49.353Z,male_vraiment_flat_153.wav,0,False,1024,70,M,2,0.142086,-76.077591
06121953,65,1,2024-03-02T11:21:49.353Z,male_vraiment_flat_153.wav,0,False,1024,70,M,3,0.213129,-18.807121
06121953,65,1,2024-03-02T11:21:49.353Z,male_vraiment_flat_153.wav,0,False,1024,70,M,4,0.284172,-115.396331
06121953,65,1,2024-03-02T11:21:49.353Z,male_vraiment_flat_153.wav,0,False,1024,70,M,5,0.355215,-128.292537
06121953,65,1,2024-03-02T11:21:49.353Z,male_vraiment_flat_153.wav,0,False,1024,70,M,6,0.426259,-78.650880
06121953,65,1,2024-03-02T11:21:49.353Z,male_vraiment_flat_191.wav,1,True,1024,70,M,0,0.000000,-3.321474
06121953,65,1,2024-03-02T11:21:49.353Z,male_vraiment_flat_191.wav,1,True,1024,70,M,1,0.071043,110.638678
06121953,65,1,2024-03-02T11:21:49.353Z,male_vraiment_flat_191.wav,1,True,1024,70,M,2,0.142086,142.170563
06121953,65,1,2024-03-02T11:21:49.353Z,male_vraiment_flat_191.wav,1,True,1024,70,M,3,0.213129,-110.761685
06121953,65,1,2024-03-02T11:21:49.353Z,male_vraiment_flat_191.wav,1,True,1024,70,M,4,0.284172,23.931067
06121953,65,1,2024-03-02T11:21:49.353Z,male_vraiment_flat_191.wav,1,True,1024,70,M,5,0.355215,-28.623113
06121953,65,1,2024-03-02T11:21:49.353Z,male_vraiment_flat_191.wav,1,True,1024,70,M,6,0.426259,68.073722
06121953,66,1,2024-03-02T11:21:49.353Z,male_vraiment_flat_169.wav,0,False,1308,70,M,0,0.000000,117.441793
06121953,66,1,2024-03-02T11:21:49.353Z,male_vraiment_flat_169.wav,0,False,1308,70,M,1,0.071043,-117.459261
06121953,66,1,2024-03-02T11:21:49.353Z,male_vraiment_flat_169.wav,0,False,1308,70,M,2,0.142086,-45.020491
06121953,66,1,2024-03-02T11:21:49.353Z,male_vraiment_flat_169.wav,0,False,1308,70,M,3,0.213129,-67.699150
06121953,66,1,2024-03-02T11:21:49.353Z,male_vraiment_flat_169.wav,0,False,1308,70,M,4,0.284172,-122.755451
06121953,66,1,2024-03-02T11:21:49.353Z,male_vraiment_flat_169.wav,0,False,1308,70,M,5,0.355215,-10.702133
06121953,66,1,2024-03-02T11:21:49.353Z,male_vraiment_flat_169.wav,0,False,1308,70,M,6,0.426259,66.943327
06121953,66,1,2024-03-02T11:21:49.353Z,male_vraiment_flat_162.wav,1,True,1308,70,M,0,0.000000,-28.080103
06121953,66,1,2024-03-02T11:21:49.353Z,male_vraiment_flat_162.wav,1,True,1308,70,M,1,0.071043,-58.839442
06121953,66,1,2024-03-02T11:21:49.353Z,male_vraiment_flat_162.wav,1,True,1308,70,M,2,0.142086,8.883261
06121953,66,1,2024-03-02T11:21:49.353Z,male_vraiment_flat_162.wav,1,True,1308,70,M,3,0.213129,109.746189
06121953,66,1,2024-03-02T11:21:49.353Z,male_vraiment_flat_162.wav,1,True,1308,70,M,4,0.284172,134.765505
06121953,66,1,2024-03-02T11:21:49.353Z,male_vraiment_flat_162.wav,1,True,1308,70,M,5,0.355215,-8.935646
06121953,66,1,2024-03-02T11:21:49.353Z,male_vraiment_flat_162.wav,1,True,1308,70,M,6,0.426259,114.162759
06121953,67,1,2024-03-02T11:21:49.353Z,male_vraiment_flat_82.wav,0,False,894,70,M,0,0.000000,14.171085
06121953,67,1,2024-03-02T11:21:49.353Z,male_vraiment_flat_82.wav,0,False,894,70,M,1,0.071043,-68.153896
06121953,67,1,2024-03-02T11:21:49.353Z,male_vraiment_flat_82.wav,0,False,894,70,M,2,0.142086,-24.679362
06121953,67,1,2024-03-02T11:21:49.353Z,male_vraiment_flat_82.wav,0,False,894,70,M,3,0.213129,-58.364866
06121953,67,1,2024-03-02T11:21:49.353Z,male_vraiment_flat_82.wav,0,False,894,70,M,4,0.284172,-35.694955
06121953,67,1,2024-03-02T11:21:49.353Z,male_vraiment_flat_82.wav,0,False,894,70,M,5,0.355215,-79.701050
06121953,67,1,2024-03-02T11:21:49.353Z,male_vraiment_flat_82.wav,0,False,894,70,M,6,0.426259,-70.571097
06121953,67,1,2024-03-02T11:21:49.353Z,male_vraiment_flat_26.wav,1,True,894,70,M,0,0.000000,-135.344658
06121953,67,1,2024-03-02T11:21:49.353Z,male_vraiment_flat_26.wav,1,True,894,70,M,1,0.071043,-76.172858
06121953,67,1,2024-03-02T11:21:49.353Z,male_vraiment_flat_26.wav,1,True,894,70,M,2,0.142086,-130.999312
06121953,67,1,2024-03-02T11:21:49.353Z,male_vraiment_flat_26.wav,1,True,894,70,M,3,0.213129,-146.306144
06121953,67,1,2024-03-02T11:21:49.353Z,male_vraiment_flat_26.wav,1,True,894,70,M,4,0.284172,-78.266251
06121953,67,1,2024-03-02T11:21:49.353Z,male_vraiment_flat_26.wav,1,True,894,70,M,5,0.355215,30.254136
06121953,67,1,2024-03-02T11:21:49.353Z,male_vraiment_flat_26.wav,1,True,894,70,M,6,0.426259,-114.179281
06121953,68,1,2024-03-02T11:21:49.353Z,male_vraiment_flat_81.wav,0,False,567,70,M,0,0.000000,35.884214
06121953,68,1,2024-03-02T11:21:49.353Z,male_vraiment_flat_81.wav,0,False,567,70,M,1,0.071043,19.404831
06121953,68,1,2024-03-02T11:21:49.353Z,male_vraiment_flat_81.wav,0,False,567,70,M,2,0.142086,121.693264
06121953,68,1,2024-03-02T11:21:49.353Z,male_vraiment_flat_81.wav,0,False,567,70,M,3,0.213129,29.127429
06121953,68,1,2024-03-02T11:21:49.353Z,male_vraiment_flat_81.wav,0,False,567,70,M,4,0.284172,71.322417
06121953,68,1,2024-03-02T11:21:49.353Z,male_vraiment_flat_81.wav,0,False,567,70,M,5,0.355215,138.687922
06121953,68,1,2024-03-02T11:21:49.353Z,male_vraiment_flat_81.wav,0,False,567,70,M,6,0.426259,110.537915
06121953,68,1,2024-03-02T11:21:49.353Z,male_vraiment_flat_33.wav,1,True,567,70,M,0,0.000000,77.429006
