subj,trial,block,date,stim,stim_order,response,rt,age,sex,param_index,segment_time,pitch
Leu-Yo,0,0,2024-03-04T07:18:47.193Z,male_vraiment_flat_84.wav,0,True,16483,52,masculin,0,0.000000,79.222174
Leu-Yo,0,0,2024-03-04T07:18:47.193Z,male_vraiment_flat_84.wav,0,True,16483,52,masculin,1,0.071043,61.816109
Leu-Yo,0,0,2024-03-04T07:18:47.193Z,male_vraiment_flat_84.wav,0,True,16483,52,masculin,2,0.142086,-111.712238
Leu-Yo,0,0,2024-03-04T07:18:47.193Z,male_vraiment_flat_84.wav,0,True,16483,52,masculin,3,0.213129,96.584947
Leu-Yo,0,0,2024-03-04T07:18:47.193Z,male_vraiment_flat_84.wav,0,True,16483,52,masculin,4,0.284172,-11.292098
Leu-Yo,0,0,2024-03-04T07:18:47.193Z,male_vraiment_flat_84.wav,0,True,16483,52,masculin,5,0.355215,57.720124
Leu-Yo,0,0,2024-03-04T07:18:47.193Z,male_vraiment_flat_84.wav,0,True,16483,52,masculin,6,0.426259,-122.021307
Leu-Yo,0,0,2024-03-04T07:18:47.193Z,male_vraiment_flat_78.wav,1,False,16483,52,masculin,0,0.000000,80.055785
Leu-Yo,0,0,2024-03-04T07:18:47.193Z,male_vraiment_flat_78.wav,1,False,16483,52,masculin,1,0.071043,117.831593
Leu-Yo,0,0,2024-03-04T07:18:47.193Z,male_vraiment_flat_78.wav,1,False,16483,52,masculin,2,0.142086,-32.666549
Leu-Yo,0,0,2024-03-04T07:18:47.193Z,male_vraiment_flat_78.wav,1,False,16483,52,masculin,3,0.213129,67.905321
Leu-Yo,0,0,2024-03-04T07:18:47.193Z,male_vraiment_flat_78.wav,1,False,16483,52,masculin,4,0.284172,84.716683
Leu-Yo,0,0,2024-03-04T07:18:47.193Z,male_vraiment_flat_78.wav,1,False,16483,52,masculin,5,0.355215,30.832945
Leu-Yo,0,0,2024-03-04T07:18:47.193Z,male_vraiment_flat_78.wav,1,False,16483,52,masculin,6,0.426259,87.837740
Leu-Yo,1,0,2024-03-04T07:18:47.193Z,male_vraiment_flat_34.wav,0,True,7100,52,masculin,0,0.000000,55.759121
Leu-Yo,1,0,2024-03-04T07:18:47.193Z,male_vraiment_flat_34.wav,0,True,7100,52,masculin,1,0.071043,56.428420
Leu-Yo,1,0,2024-03-04T07:18:47.193Z,male_vraiment_flat_34.wav,0,True,7100,52,masculin,2,0.142086,-58.759553
Leu-Yo,1,0,2024-03-04T07:18:47.193Z,male_vraiment_flat_34.wav,0,True,7100,52,masculin,3,0.213129,-145.130290
Leu-Yo,1,0,2024-03-04T07:18:47.193Z,male_vraiment_flat_34.wav,0,True,7100,52,masculin,4,0.284172,109.056087
Leu-Yo,1,0,2024-03-04T07:18:47.193Z,male_vraiment_flat_34.wav,0,True,7100,52,masculin,5,0.355215,-133.281135
Leu-Yo,1,0,2024-03-04T07:18:47.193Z,male_vraiment_flat_34.wav,0,True,7100,52,masculin,6,0.426259,-126.261912
Leu-Yo,1,0,2024-03-04T07:18:47.193Z,male_vraiment_flat_171.wav,1,False,7100,52,masculin,0,0.000000,-132.910898
Leu-Yo,1,0,2024-03-04T07:18:47.193Z,male_vraiment_flat_171.wav,1,False,7100,52,masculin,1,0.071043,-40.348113
Leu-Yo,1,0,2024-03-04T07:18:47.193Z,male_vraiment_flat_171.wav,1,False,7100,52,masculin,2,0.142086,-144.469254
Leu-Yo,1,0,2024-03-04T07:18:47.193Z,male_vraiment_flat_171.wav,1,False,7100,52,masculin,3,0.213129,-148.365603
Leu-Yo,1,0,2024-03-04T07:18:47.193Z,male_vraiment_flat_171.wav,1,False,7100,52,masculin,4,0.284172,29.209812
Leu-Yo,1,0,2024-03-04T07:18:47.193Z,male_vraiment_flat_171.wav,1,False,7100,52,masculin,5,0.355215,-68.789467
Leu-Yo,1,0,2024-03-04T07:18:47.193Z,male_vraiment_flat_171.wav,1,False,7100,52,masculin,6,0.426259,116.539457
Leu-Yo,2,0,2024-03-04T07:18:47.193Z,male_vraiment_flat_82.wav,0,True,5565,52,masculin,0,0.000000,14.171085
Leu-Yo,2,0,2024-03-04T07:18:47.193Z,male_vraiment_flat_82.wav,0,True,5565,52,masculin,1,0.071043,-68.153896
Leu-Yo,2,0,2024-03-04T07:18:47.193Z,male_vraiment_flat_82.wav,0,True,5565,52,masculin,2,0.142086,-24.679362
Leu-Yo,2,0,2024-03-04T07:18:47.193Z,male_vraiment_flat_82.wav,0,True,5565,52,masculin,3,0.213129,-58.364866
Leu-Yo,2,0,2024-03-04T07:18:47.193Z,male_vraiment_flat_82.wav,0,True,5565,52,masculin,4,0.284172,-35.694955
Leu-Yo,2,0,2024-03-04T07:18:47.193Z,male_vraiment_flat_82.wav,0,True,5565,52,masculin,5,0.355215,-79.701050
Leu-Yo,2,0,2024-03-04T07:18:47.193Z,male_vraiment_flat_82.wav,0,True,5565,52,masculin,6,0.426259,-70.571097
Leu-Yo,2,0,2024-03-04T07:18:47.193Z,male_vraiment_flat_104.wav,1,False,5565,52,masculin,0,0.000000,-70.174686
Leu-Yo,2,0,2024-03-04T07:18:47.193Z,male_vraiment_flat_104.wav,1,False,5565,52,masculin,1,0.071043,-64.753986
Leu-Yo,2,0,2024-03-04T07:18:47.193Z,male_vraiment_flat_104.wav,1,False,5565,52,masculin,2,0.142086,-116.293490
Leu-Yo,2,0,2024-03-04T07:18:47.193Z,male_vraiment_flat_104.wav,1,False,5565,52,masculin,3,0.213129,-63.059369
Leu-Yo,2,0,2024-03-04T07:18:47.193Z,male_vraiment_flat_104.wav,1,False,5565,52,masculin,4,0.284172,102.899256
Leu-Yo,2,0,2024-03-04T07:18:47.193Z,male_vraiment_flat_104.wav,1,False,5565,52,masculin,5,0.355215,-142.936640
Leu-Yo,2,0,2024-03-04T07:18:47.193Z,male_vraiment_flat_104.wav,1,False,5565,52,masculin,6,0.426259,-16.173865
Leu-Yo,3,0,2024-03-04T07:18:47.193Z,male_vraiment_flat_97.wav,0,False,10115,52,masculin,0,0.000000,-82.753908
Leu-Yo,3,0,2024-03-04T07:18:47.193Z,male_vraiment_flat_97.wav,0,False,10115,52,masculin,1,0.071043,-85.130238
Leu-Yo,3,0,2024-03-04T07:18:47.193Z,male_vraiment_flat_97.wav,0,False,10115,52,masculin,2,0.142086,-72.001027
Leu-Yo,3,0,2024-03-04T07:18:47.193Z,male_vraiment_flat_97.wav,0,False,10115,52,masculin,3,0.213129,-75.442204
Leu-Yo,3,0,2024-03-04T07:18:47.193Z,male_vraiment_flat_97.wav,0,False,10115,52,masculin,4,0.284172,147.061792
Leu-Yo,3,0,2024-03-04T07:18:47.193Z,male_vraiment_flat_97.wav,0,False,10115,52,masculin,5,0.355215,126.876511
Leu-Yo,3,0,2024-03-04T07:18:47.193Z,male_vraiment_flat_97.wav,0,False,10115,52,masculin,6,0.426259,96.208887
Leu-Yo,3,0,2024-03-04T07:18:47.193Z,male_vraiment_flat_131.wav,1,True,10115,52,masculin,0,0.000000,107.175705
Leu-Yo,3,0,2024-03-04T07:18:47.193Z,male_vraiment_flat_131.wav,1,True,10115,52,masculin,1,0.071043,81.997533
Leu-Yo,3,0,2024-03-04T07:18:47.193Z,male_vraiment_flat_131.wav,1,True,10115,52,masculin,2,0.142086,53.236564
Leu-Yo,3,0,2024-03-04T07:18:47.193Z,male_vraiment_flat_131.wav,1,True,10115,52,masculin,3,0.213129,108.962563
Leu-Yo,3,0,2024-03-04T07:18:47.193Z,male_vraiment_flat_131.wav,1,True,10115,52,masculin,4,0.284172,-22.910156
Leu-Yo,3,0,2024-03-04T07:18:47.193Z,male_vraiment_flat_131.wav,1,True,10115,52,masculin,5,0.355215,133.743101
Leu-Yo,3,0,2024-03-04T07:18:47.193Z,male_vraiment_flat_131.wav,1,True,10115,52,masculin,6,0.426259,98.652547
Leu-Yo,4,0,2024-03-04T07:18:47.193Z,male_vraiment_flat_181.wav,0,True,2155,52,masculin,0,0.000000,87.984579
Leu-Yo,4,0,2024-03-04T07:18:47.193Z,male_vraiment_flat_181.wav,0,True,2155,52,masculin,1,0.071043,-52.749156
Leu-Yo,4,0,2024-03-04T07:18:47.193Z,male_vraiment_flat_181.wav,0,True,2155,52,masculin,2,0.142086,-81.744540
Leu-Yo,4,0,2024-03-04T07:18:47.193Z,male_vraiment_flat_181.wav,0,True,2155,52,masculin,3,0.213129,-103.539742
Leu-Yo,4,0,2024-03-04T07:18:47.193Z,male_vraiment_flat_181.wav,0,True,2155,52,masculin,4,0.284172,51.143910
Leu-Yo,4,0,2024-03-04T07:18:47.193Z,male_vraiment_flat_181.wav,0,True,2155,52,masculin,5,0.355215,89.293467
Leu-Yo,4,0,2024-03-04T07:18:47.193Z,male_vraiment_flat_181.wav,0,True,2155,52,masculin,6,0.426259,-33.289981
Leu-Yo,4,0,2024-03-04T07:18:47.193Z,male_vraiment_flat_121.wav,1,False,2155,52,masculin,0,0.000000,-58.637887
Leu-Yo,4,0,2024-03-04T07:18:47.193Z,male_vraiment_flat_121.wav,1,False,2155,52,masculin,1,0.071043,-104.347196
Leu-Yo,4,0,2024-03-04T07:18:47.193Z,male_vraiment_flat_121.wav,1,False,2155,52,masculin,2,0.142086,149.905377
Leu-Yo,4,0,2024-03-04T07:18:47.193Z,male_vraiment_flat_121.wav,1,False,2155,52,masculin,3,0.213129,-98.681631
Leu-Yo,4,0,2024-03-04T07:18:47.193Z,male_vraiment_flat_121.wav,1,False,2155,52,masculin,4,0.284172,-147.265274
Leu-Yo,4,0,2024-03-04T07:18:47.193Z,male_vraiment_flat_121.wav,1,False,2155,52,masculin,5,0.355215,64.587538
Leu-Yo,4,0,2024-03-04T07:18:47.193Z,male_vraiment_flat_121.wav,1,False,2155,52,masculin,6,0.426259,26.674605
Leu-Yo,5,0,2024-03-04T07:18:47.193Z,male_vraiment_flat_10.wav,0,False,4504,52,masculin,0,0.000000,-59.283835
Leu-Yo,5,0,2024-03-04T07:18:47.193Z,male_vraiment_flat_10.wav,0,False,4504,52,masculin,1,0.071043,33.418752
Leu-Yo,5,0,2024-03-04T07:18:47.193Z,male_vraiment_flat_10.wav,0,False,4504,52,masculin,2,0.142086,-98.686452
Leu-Yo,5,0,2024-03-04T07:18:47.193Z,male_vraiment_flat_10.wav,0,False,4504,52,masculin,3,0.213129,137.870403
Leu-Yo,5,0,2024-03-04T07:18:47.193Z,male_vraiment_flat_10.wav,0,False,4504,52,masculin,4,0.284172,-113.384751
Leu-Yo,5,0,2024-03-04T07:18:47.193Z,male_vraiment_flat_10.wav,0,False,4504,52,masculin,5,0.355215,-122.497954
Leu-Yo,5,0,2024-03-04T07:18:47.193Z,male_vraiment_flat_10.wav,0,False,4504,52,masculin,6,0.426259,-121.154526
Leu-Yo,5,0,2024-03-04T07:18:47.193Z,male_vraiment_flat_111.wav,1,True,4504,52,masculin,0,0.000000,-76.898484
Leu-Yo,5,0,2024-03-04T07:18:47.193Z,male_vraiment_flat_111.wav,1,True,4504,52,masculin,1,0.071043,128.576704
Leu-Yo,5,0,2024-03-04T07:18:47.193Z,male_vraiment_flat_111.wav,1,True,4504,52,masculin,2,0.142086,84.475821
Leu-Yo,5,0,2024-03-04T07:18:47.193Z,male_vraiment_flat_111.wav,1,True,4504,52,masculin,3,0.213129,13.962019
Leu-Yo,5,0,2024-03-04T07:18:47.193Z,male_vraiment_flat_111.wav,1,True,4504,52,masculin,4,0.284172,80.950376
Leu-Yo,5,0,2024-03-04T07:18:47.193Z,male_vraiment_flat_111.wav,1,True,4504,52,masculin,5,0.355215,105.627204
Leu-Yo,5,0,2024-03-04T07:18:47.193Z,male_vraiment_flat_111.wav,1,True,4504,52,masculin,6,0.426259,86.259873
Leu-Yo,6,0,2024-03-04T07:18:47.193Z,male_vraiment_flat_72.wav,0,True,6209,52,masculin,0,0.000000,-108.464526
Leu-Yo,6,0,2024-03-04T07:18:47.193Z,male_vraiment_flat_72.wav,0,True,6209,52,masculin,1,0.071043,78.835335
Leu-Yo,6,0,2024-03-04T07:18:47.193Z,male_vraiment_flat_72.wav,0,True,6209,52,masculin,2,0.142086,134.553834
Leu-Yo,6,0,2024-03-04T07:18:47.193Z,male_vraiment_flat_72.wav,0,True,6209,52,masculin,3,0.213129,5.396534
Leu-Yo,6,0,2024-03-04T07:18:47.193Z,male_vraiment_flat_72.wav,0,True,6209,52,masculin,4,0.284172,7.798595
Leu-Yo,6,0,2024-03-04T07:18:47.193Z,male_vraiment_flat_72.wav,0,True,6209,52,masculin,5,0.355215,65.510626
Leu-Yo,6,0,2024-03-04T07:18:47.193Z,male_vraiment_flat_72.wav,0,True,6209,52,masculin,6,0.426259,-103.798030
Leu-Yo,6,0,2024-03-04T07:18:47.193Z,male_vraiment_flat_24.wav,1,False,6209,52,masculin,0,0.000000,-144.276814
Leu-Yo,6,0,2024-03-04T07:18:47.193Z,male_vraiment_flat_24.wav,1,False,6209,52,masculin,1,0.071043,-59.436611
Leu-Yo,6,0,2024-03-04T07:18:47.193Z,male_vraiment_flat_24.wav,1,False,6209,52,masculin,2,0.142086,45.565590
Leu-Yo,6,0,2024-03-04T07:18:47.193Z,male_vraiment_flat_24.wav,1,False,6209,52,masculin,3,0.213129,19.626340
Leu-Yo,6,0,2024-03-04T07:18:47.193Z,male_vraiment_flat_24.wav,1,False,6209,52,masculin,4,0.284172,-127.586662
Leu-Yo,6,0,2024-03-04T07:18:47.193Z,male_vraiment_flat_24.wav,1,False,6209,52,masculin,5,0.355215,59.214853
Leu-Yo,6,0,2024-03-04T07:18:47.193Z,male_vraiment_flat_24.wav,1,False,6209,52,masculin,6,0.426259,-70.996219
Leu-Yo,7,0,2024-03-04T07:18:47.193Z,male_vraiment_flat_176.wav,0,True,6594,52,masculin,0,0.000000,-0.886832
Leu-Yo,7,0,2024-03-04T07:18:47.193Z,male_vraiment_flat_176.wav,0,True,6594,52,masculin,1,0.071043,48.604994
Leu-Yo,7,0,2024-03-04T07:18:47.193Z,male_vraiment_flat_176.wav,0,True,6594,52,masculin,2,0.142086,33.352714
Leu-Yo,7,0,2024-03-04T07:18:47.193Z,male_vraiment_flat_176.wav,0,True,6594,52,masculin,3,0.213129,-55.356586
Leu-Yo,7,0,2024-03-04T07:18:47.193Z,male_vraiment_flat_176.wav,0,True,6594,52,masculin,4,0.284172,-13.903711
Leu-Yo,7,0,2024-03-04T07:18:47.193Z,male_vraiment_flat_176.wav,0,True,6594,52,masculin,5,0.355215,54.096530
Leu-Yo,7,0,2024-03-04T07:18:47.193Z,male_vraiment_flat_176.wav,0,True,6594,52,masculin,6,0.426259,-77.791606
Leu-Yo,7,0,2024-03-04T07:18:47.193Z,male_vraiment_flat_192.wav,1,False,6594,52,masculin,0,0.000000,46.973159
Leu-Yo,7,0,2024-03-04T07:18:47.193Z,male_vraiment_flat_192.wav,1,False,6594,52,masculin,1,0.071043,-61.711820
Leu-Yo,7,0,2024-03-04T07:18:47.193Z,male_vraiment_flat_192.wav,1,False,6594,52,masculin,2,0.142086,14.836428
Leu-Yo,7,0,2024-03-04T07:18:47.193Z,male_vraiment_flat_192.wav,1,False,6594,52,masculin,3,0.213129,30.862549
Leu-Yo,7,0,2024-03-04T07:18:47.193Z,male_vraiment_flat_192.wav,1,False,6594,52,masculin,4,0.284172,28.459321
Leu-Yo,7,0,2024-03-04T07:18:47.193Z,male_vraiment_flat_192.wav,1,False,6594,52,masculin,5,0.355215,2.114815
Leu-Yo,7,0,2024-03-04T07:18:47.193Z,male_vraiment_flat_192.wav,1,False,6594,52,masculin,6,0.426259,86.651936
Leu-Yo,8,0,2024-03-04T07:18:47.193Z,male_vraiment_flat_86.wav,0,False,3659,52,masculin,0,0.000000,85.260205
Leu-Yo,8,0,2024-03-04T07:18:47.193Z,male_vraiment_flat_86.wav,0,False,3659,52,masculin,1,0.071043,-4.684566
Leu-Yo,8,0,2024-03-04T07:18:47.193Z,male_vraiment_flat_86.wav,0,False,3659,52,masculin,2,0.142086,133.406345
Leu-Yo,8,0,2024-03-04T07:18:47.193Z,male_vraiment_flat_86.wav,0,False,3659,52,masculin,3,0.213129,110.454503
Leu-Yo,8,0,2024-03-04T07:18:47.193Z,male_vraiment_flat_86.wav,0,False,3659,52,masculin,4,0.284172,38.373367
Leu-Yo,8,0,2024-03-04T07:18:47.193Z,male_vraiment_flat_86.wav,0,False,3659,52,masculin,5,0.355215,75.992097
Leu-Yo,8,0,2024-03-04T07:18:47.193Z,male_vraiment_flat_86.wav,0,False,3659,52,masculin,6,0.426259,-87.651019
Leu-Yo,8,0,2024-03-04T07:18:47.193Z,male_vraiment_flat_4.wav,1,True,3659,52,masculin,0,0.000000,98.226066
Leu-Yo,8,0,2024-03-04T07:18:47.193Z,male_vraiment_flat_4.wav,1,True,3659,52,masculin,1,0.071043,119.322928
Leu-Yo,8,0,2024-03-04T07:18:47.193Z,male_vraiment_flat_4.wav,1,True,3659,52,masculin,2,0.142086,-139.339853
Leu-Yo,8,0,2024-03-04T07:18:47.193Z,male_vraiment_flat_4.wav,1,True,3659,52,masculin,3,0.213129,-46.932317
Leu-Yo,8,0,2024-03-04T07:18:47.193Z,male_vraiment_flat_4.wav,1,True,3659,52,masculin,4,0.284172,-13.288809
Leu-Yo,8,0,2024-03-04T07:18:47.193Z,male_vraiment_flat_4.wav,1,True,3659,52,masculin,5,0.355215,94.861826
Leu-Yo,8,0,2024-03-04T07:18:47.193Z,male_vraiment_flat_4.wav,1,True,3659,52,masculin,6,0.426259,-84.397607
Leu-Yo,9,0,2024-03-04T07:18:47.193Z,male_vraiment_flat_105.wav,0,True,1151,52,masculin,0,0.000000,125.556012
Leu-Yo,9,0,2024-03-04T07:18:47.193Z,male_vraiment_flat_105.wav,0,True,1151,52,masculin,1,0.071043,102.885047
Leu-Yo,9,0,2024-03-04T07:18:47.193Z,male_vraiment_flat_105.wav,0,True,1151,52,masculin,2,0.142086,-23.318884
Leu-Yo,9,0,2024-03-04T07:18:47.193Z,male_vraiment_flat_105.wav,0,True,1151,52,masculin,3,0.213129,96.270063
Leu-Yo,9,0,2024-03-04T07:18:47.193Z,male_vraiment_flat_105.wav,0,True,1151,52,masculin,4,0.284172,-32.661499
Leu-Yo,9,0,2024-03-04T07:18:47.193Z,male_vraiment_flat_105.wav,0,True,1151,52,masculin,5,0.355215,-7.829717
Leu-Yo,9,0,2024-03-04T07:18:47.193Z,male_vraiment_flat_105.wav,0,True,1151,52,masculin,6,0.426259,-13.047753
Leu-Yo,9,0,2024-03-04T07:18:47.193Z,male_vraiment_flat_160.wav,1,False,1151,52,masculin,0,0.000000,21.342691
Leu-Yo,9,0,2024-03-04T07:18:47.193Z,male_vraiment_flat_160.wav,1,False,1151,52,masculin,1,0.071043,-76.780347
Leu-Yo,9,0,2024-03-04T07:18:47.193Z,male_vraiment_flat_160.wav,1,False,1151,52,masculin,2,0.142086,-127.843887
Leu-Yo,9,0,2024-03-04T07:18:47.193Z,male_vraiment_flat_160.wav,1,False,1151,52,masculin,3,0.213129,-126.126744
Leu-Yo,9,0,2024-03-04T07:18:47.193Z,male_vraiment_flat_160.wav,1,False,1151,52,masculin,4,0.284172,-33.722090
Leu-Yo,9,0,2024-03-04T07:18:47.193Z,male_vraiment_flat_160.wav,1,False,1151,52,masculin,5,0.355215,18.600024
Leu-Yo,9,0,2024-03-04T07:18:47.193Z,male_vraiment_flat_160.wav,1,False,1151,52,masculin,6,0.426259,-57.157597
Leu-Yo,10,0,2024-03-04T07:18:47.193Z,male_vraiment_flat_12.wav,0,False,2876,52,masculin,0,0.000000,-11.936919
Leu-Yo,10,0,2024-03-04T07:18:47.193Z,male_vraiment_flat_12.wav,0,False,2876,52,masculin,1,0.071043,-51.249998
Leu-Yo,10,0,2024-03-04T07:18:47.193Z,male_vraiment_flat_12.wav,0,False,2876,52,masculin,2,0.142086,42.322915
Leu-Yo,10,0,2024-03-04T07:18:47.193Z,male_vraiment_flat_12.wav,0,False,2876,52,masculin,3,0.213129,-19.839410
Leu-Yo,10,0,2024-03-04T07:18:47.193Z,male_vraiment_flat_12.wav,0,False,2876,52,masculin,4,0.284172,46.127041
Leu-Yo,10,0,2024-03-04T07:18:47.193Z,male_vraiment_flat_12.wav,0,False,2876,52,masculin,5,0.355215,34.596861
Leu-Yo,10,0,2024-03-04T07:18:47.193Z,male_vraiment_flat_12.wav,0,False,2876,52,masculin,6,0.426259,143.594573
Leu-Yo,10,0,2024-03-04T07:18:47.193Z,male_vraiment_flat_46.wav,1,True,2876,52,masculin,0,0.000000,48.231571
Leu-Yo,10,0,2024-03-04T07:18:47.193Z,male_vraiment_flat_46.wav,1,True,2876,52,masculin,1,0.071043,-13.386862
Leu-Yo,10,0,2024-03-04T07:18:47.193Z,male_vraiment_flat_46.wav,1,True,2876,52,masculin,2,0.142086,107.175029
Leu-Yo,10,0,2024-03-04T07:18:47.193Z,male_vraiment_flat_46.wav,1,True,2876,52,masculin,3,0.213129,24.056117
Leu-Yo,10,0,2024-03-04T07:18:47.193Z,male_vraiment_flat_46.wav,1,True,2876,52,masculin,4,0.284172,72.951541
Leu-Yo,10,0,2024-03-04T07:18:47.193Z,male_vraiment_flat_46.wav,1,True,2876,52,masculin,5,0.355215,123.539508
Leu-Yo,10,0,2024-03-04T07:18:47.193Z,male_vraiment_flat_46.wav,1,True,2876,52,masculin,6,0.426259,50.410407
Leu-Yo,11,0,2024-03-04T07:18:47.193Z,male_vraiment_flat_16.wav,0,True,5933,52,masculin,0,0.000000,141.243943
Leu-Yo,11,0,2024-03-04T07:18:47.193Z,male_vraiment_flat_16.wav,0,True,5933,52,masculin,1,0.071043,-34.322435
Leu-Yo,11,0,2024-03-04T07:18:47.193Z,male_vraiment_flat_16.wav,0,True,5933,52,masculin,2,0.142086,10.018864
Leu-Yo,11,0,2024-03-04T07:18:47.193Z,male_vraiment_flat_16.wav,0,True,5933,52,masculin,3,0.213129,-24.066951
Leu-Yo,11,0,2024-03-04T07:18:47.193Z,male_vraiment_flat_16.wav,0,True,5933,52,masculin,4,0.284172,45.502655
Leu-Yo,11,0,2024-03-04T07:18:47.193Z,male_vraiment_flat_16.wav,0,True,5933,52,masculin,5,0.355215,107.276086
Leu-Yo,11,0,2024-03-04T07:18:47.193Z,male_vraiment_flat_16.wav,0,True,5933,52,masculin,6,0.426259,58.110380
Leu-Yo,11,0,2024-03-04T07:18:47.193Z,male_vraiment_flat_63.wav,1,False,5933,52,masculin,0,0.000000,106.489910
Leu-Yo,11,0,2024-03-04T07:18:47.193Z,male_vraiment_flat_63.wav,1,False,5933,52,masculin,1,0.071043,-87.090173
Leu-Yo,11,0,2024-03-04T07:18:47.193Z,male_vraiment_flat_63.wav,1,False,5933,52,masculin,2,0.142086,63.865444
Leu-Yo,11,0,2024-03-04T07:18:47.193Z,male_vraiment_flat_63.wav,1,False,5933,52,masculin,3,0.213129,-130.111458
Leu-Yo,11,0,2024-03-04T07:18:47.193Z,male_vraiment_flat_63.wav,1,False,5933,52,masculin,4,0.284172,45.870405
Leu-Yo,11,0,2024-03-04T07:18:47.193Z,male_vraiment_flat_63.wav,1,False,5933,52,masculin,5,0.355215,-60.104934
Leu-Yo,11,0,2024-03-04T07:18:47.193Z,male_vraiment_flat_63.wav,1,False,5933,52,masculin,6,0.426259,67.674520
Leu-Yo,12,0,2024-03-04T07:18:47.193Z,male_vraiment_flat_142.wav,0,True,3517,52,masculin,0,0.000000,129.881009
Leu-Yo,12,0,2024-03-04T07:18:47.193Z,male_vraiment_flat_142.wav,0,True,3517,52,masculin,1,0.071043,116.596688
Leu-Yo,12,0,2024-03-04T07:18:47.193Z,male_vraiment_flat_142.wav,0,True,3517,52,masculin,2,0.142086,48.203333
Leu-Yo,12,0,2024-03-04T07:18:47.193Z,male_vraiment_flat_142.wav,0,True,3517,52,masculin,3,0.213129,100.883154
Leu-Yo,12,0,2024-03-04T07:18:47.193Z,male_vraiment_flat_142.wav,0,True,3517,52,masculin,4,0.284172,-39.625904
Leu-Yo,12,0,2024-03-04T07:18:47.193Z,male_vraiment_flat_142.wav,0,True,3517,52,masculin,5,0.355215,-141.802649
Leu-Yo,12,0,2024-03-04T07:18:47.193Z,male_vraiment_flat_142.wav,0,True,3517,52,masculin,6,0.426259,58.691582
Leu-Yo,12,0,2024-03-04T07:18:47.193Z,male_vraiment_flat_138.wav,1,False,3517,52,masculin,0,0.000000,-29.536298
Leu-Yo,12,0,2024-03-04T07:18:47.193Z,male_vraiment_flat_138.wav,1,False,3517,52,masculin,1,0.071043,90.685935
Leu-Yo,12,0,2024-03-04T07:18:47.193Z,male_vraiment_flat_138.wav,1,False,3517,52,masculin,2,0.142086,-77.044346
Leu-Yo,12,0,2024-03-04T07:18:47.193Z,male_vraiment_flat_138.wav,1,False,3517,52,masculin,3,0.213129,-75.264885
Leu-Yo,12,0,2024-03-04T07:18:47.193Z,male_vraiment_flat_138.wav,1,False,3517,52,masculin,4,0.284172,-129.490236
Leu-Yo,12,0,2024-03-04T07:18:47.193Z,male_vraiment_flat_138.wav,1,False,3517,52,masculin,5,0.355215,-48.940612
Leu-Yo,12,0,2024-03-04T07:18:47.193Z,male_vraiment_flat_138.wav,1,False,3517,52,masculin,6,0.426259,-95.647001
Leu-Yo,13,0,2024-03-04T07:18:47.193Z,male_vraiment_flat_152.wav,0,True,1374,52,masculin,0,0.000000,-121.409464
Leu-Yo,13,0,2024-03-04T07:18:47.193Z,male_vraiment_flat_152.wav,0,True,1374,52,masculin,1,0.071043,26.229918
Leu-Yo,13,0,2024-03-04T07:18:47.193Z,male_vraiment_flat_152.wav,0,True,1374,52,masculin,2,0.142086,46.107283
Leu-Yo,13,0,2024-03-04T07:18:47.193Z,male_vraiment_flat_152.wav,0,True,1374,52,masculin,3,0.213129,-122.378424
Leu-Yo,13,0,2024-03-04T07:18:47.193Z,male_vraiment_flat_152.wav,0,True,1374,52,masculin,4,0.284172,64.911076
Leu-Yo,13,0,2024-03-04T07:18:47.193Z,male_vraiment_flat_152.wav,0,True,1374,52,masculin,5,0.355215,129.744578
Leu-Yo,13,0,2024-03-04T07:18:47.193Z,male_vraiment_flat_152.wav,0,True,1374,52,masculin,6,0.426259,51.632825
Leu-Yo,13,0,2024-03-04T07:18:47.193Z,male_vraiment_flat_150.wav,1,False,1374,52,masculin,0,0.000000,-0.845919
Leu-Yo,13,0,2024-03-04T07:18:47.193Z,male_vraiment_flat_150.wav,1,False,1374,52,masculin,1,0.071043,-101.665398
Leu-Yo,13,0,2024-03-04T07:18:47.193Z,male_vraiment_flat_150.wav,1,False,1374,52,masculin,2,0.142086,-128.909269
Leu-Yo,13,0,2024-03-04T07:18:47.193Z,male_vraiment_flat_150.wav,1,False,1374,52,masculin,3,0.213129,-98.956601
Leu-Yo,13,0,2024-03-04T07:18:47.193Z,male_vraiment_flat_150.wav,1,False,1374,52,masculin,4,0.284172,-120.693020
Leu-Yo,13,0,2024-03-04T07:18:47.193Z,male_vraiment_flat_150.wav,1,False,1374,52,masculin,5,0.355215,-126.286795
Leu-Yo,13,0,2024-03-04T07:18:47.193Z,male_vraiment_flat_150.wav,1,False,1374,52,masculin,6,0.426259,121.368949
Leu-Yo,14,0,2024-03-04T07:18:47.193Z,male_vraiment_flat_177.wav,0,False,810,52,masculin,0,0.000000,16.306046
Leu-Yo,14,0,2024-03-04T07:18:47.193Z,male_vraiment_flat_177.wav,0,False,810,52,masculin,1,0.071043,49.193464
Leu-Yo,14,0,2024-03-04T07:18:47.193Z,male_vraiment_flat_177.wav,0,False,810,52,masculin,2,0.142086,-57.450827
Leu-Yo,14,0,2024-03-04T07:18:47.193Z,male_vraiment_flat_177.wav,0,False,810,52,masculin,3,0.213129,-71.200742
Leu-Yo,14,0,2024-03-04T07:18:47.193Z,male_vraiment_flat_177.wav,0,False,810,52,masculin,4,0.284172,75.759547
Leu-Yo,14,0,2024-03-04T07:18:47.193Z,male_vraiment_flat_177.wav,0,False,810,52,masculin,5,0.355215,-147.097868
Leu-Yo,14,0,2024-03-04T07:18:47.193Z,male_vraiment_flat_177.wav,0,False,810,52,masculin,6,0.426259,-23.614561
Leu-Yo,14,0,2024-03-04T07:18:47.193Z,male_vraiment_flat_118.wav,1,True,810,52,masculin,0,0.000000,126.187147
Leu-Yo,14,0,2024-03-04T07:18:47.193Z,male_vraiment_flat_118.wav,1,True,810,52,masculin,1,0.071043,44.969184
Leu-Yo,14,0,2024-03-04T07:18:47.193Z,male_vraiment_flat_118.wav,1,True,810,52,masculin,2,0.142086,-108.017243
Leu-Yo,14,0,2024-03-04T07:18:47.193Z,male_vraiment_flat_118.wav,1,True,810,52,masculin,3,0.213129,6.480803
Leu-Yo,14,0,2024-03-04T07:18:47.193Z,male_vraiment_flat_118.wav,1,True,810,52,masculin,4,0.284172,89.811831
Leu-Yo,14,0,2024-03-04T07:18:47.193Z,male_vraiment_flat_118.wav,1,True,810,52,masculin,5,0.355215,60.034007
Leu-Yo,14,0,2024-03-04T07:18:47.193Z,male_vraiment_flat_118.wav,1,True,810,52,masculin,6,0.426259,63.317816
Leu-Yo,15,0,2024-03-04T07:18:47.193Z,male_vraiment_flat_94.wav,0,False,883,52,masculin,0,0.000000,-0.652128
Leu-Yo,15,0,2024-03-04T07:18:47.193Z,male_vraiment_flat_94.wav,0,False,883,52,masculin,1,0.071043,97.860897
Leu-Yo,15,0,2024-03-04T07:18:47.193Z,male_vraiment_flat_94.wav,0,False,883,52,masculin,2,0.142086,48.932214
Leu-Yo,15,0,2024-03-04T07:18:47.193Z,male_vraiment_flat_94.wav,0,False,883,52,masculin,3,0.213129,-23.097711
Leu-Yo,15,0,2024-03-04T07:18:47.193Z,male_vraiment_flat_94.wav,0,False,883,52,masculin,4,0.284172,-47.481676
Leu-Yo,15,0,2024-03-04T07:18:47.193Z,male_vraiment_flat_94.wav,0,False,883,52,masculin,5,0.355215,-120.450621
Leu-Yo,15,0,2024-03-04T07:18:47.193Z,male_vraiment_flat_94.wav,0,False,883,52,masculin,6,0.426259,-116.887604
Leu-Yo,15,0,2024-03-04T07:18:47.193Z,male_vraiment_flat_185.wav,1,True,883,52,masculin,0,0.000000,7.537788
Leu-Yo,15,0,2024-03-04T07:18:47.193Z,male_vraiment_flat_185.wav,1,True,883,52,masculin,1,0.071043,138.761382
Leu-Yo,15,0,2024-03-04T07:18:47.193Z,male_vraiment_flat_185.wav,1,True,883,52,masculin,2,0.142086,88.970452
Leu-Yo,15,0,2024-03-04T07:18:47.193Z,male_vraiment_flat_185.wav,1,True,883,52,masculin,3,0.213129,-106.980409
Leu-Yo,15,0,2024-03-04T07:18:47.193Z,male_vraiment_flat_185.wav,1,True,883,52,masculin,4,0.284172,-72.334155
Leu-Yo,15,0,2024-03-04T07:18:47.193Z,male_vraiment_flat_185.wav,1,True,883,52,masculin,5,0.355215,87.356426
Leu-Yo,15,0,2024-03-04T07:18:47.193Z,male_vraiment_flat_185.wav,1,True,883,52,masculin,6,0.426259,90.917936
Leu-Yo,16,0,2024-03-04T07:18:47.193Z,male_vraiment_flat_174.wav,0,True,4128,52,masculin,0,0.000000,12.449350
Leu-Yo,16,0,2024-03-04T07:18:47.193Z,male_vraiment_flat_174.wav,0,True,4128,52,masculin,1,0.071043,17.986555
Leu-Yo,16,0,2024-03-04T07:18:47.193Z,male_vraiment_flat_174.wav,0,True,4128,52,masculin,2,0.142086,-72.720888
Leu-Yo,16,0,2024-03-04T07:18:47.193Z,male_vraiment_flat_174.wav,0,True,4128,52,masculin,3,0.213129,41.369679
Leu-Yo,16,0,2024-03-04T07:18:47.193Z,male_vraiment_flat_174.wav,0,True,4128,52,masculin,4,0.284172,-146.787018
Leu-Yo,16,0,2024-03-04T07:18:47.193Z,male_vraiment_flat_174.wav,0,True,4128,52,masculin,5,0.355215,3.271800
Leu-Yo,16,0,2024-03-04T07:18:47.193Z,male_vraiment_flat_174.wav,0,True,4128,52,masculin,6,0.426259,26.686198
Leu-Yo,16,0,2024-03-04T07:18:47.193Z,male_vraiment_flat_49.wav,1,False,4128,52,masculin,0,0.000000,-83.600042
Leu-Yo,16,0,2024-03-04T07:18:47.193Z,male_vraiment_flat_49.wav,1,False,4128,52,masculin,1,0.071043,-14.728623
Leu-Yo,16,0,2024-03-04T07:18:47.193Z,male_vraiment_flat_49.wav,1,False,4128,52,masculin,2,0.142086,25.142138
Leu-Yo,16,0,2024-03-04T07:18:47.193Z,male_vraiment_flat_49.wav,1,False,4128,52,masculin,3,0.213129,135.875151
Leu-Yo,16,0,2024-03-04T07:18:47.193Z,male_vraiment_flat_49.wav,1,False,4128,52,masculin,4,0.284172,60.117986
Leu-Yo,16,0,2024-03-04T07:18:47.193Z,male_vraiment_flat_49.wav,1,False,4128,52,masculin,5,0.355215,-135.086661
Leu-Yo,16,0,2024-03-04T07:18:47.193Z,male_vraiment_flat_49.wav,1,False,4128,52,masculin,6,0.426259,-32.809615
Leu-Yo,17,0,2024-03-04T07:18:47.193Z,male_vraiment_flat_114.wav,0,True,3505,52,masculin,0,0.000000,-107.614700
Leu-Yo,17,0,2024-03-04T07:18:47.193Z,male_vraiment_flat_114.wav,0,True,3505,52,masculin,1,0.071043,-121.606705
Leu-Yo,17,0,2024-03-04T07:18:47.193Z,male_vraiment_flat_114.wav,0,True,3505,52,masculin,2,0.142086,26.820871
Leu-Yo,17,0,2024-03-04T07:18:47.193Z,male_vraiment_flat_114.wav,0,True,3505,52,masculin,3,0.213129,42.957584
Leu-Yo,17,0,2024-03-04T07:18:47.193Z,male_vraiment_flat_114.wav,0,True,3505,52,masculin,4,0.284172,-48.053802
Leu-Yo,17,0,2024-03-04T07:18:47.193Z,male_vraiment_flat_114.wav,0,True,3505,52,masculin,5,0.355215,-10.474627
Leu-Yo,17,0,2024-03-04T07:18:47.193Z,male_vraiment_flat_114.wav,0,True,3505,52,masculin,6,0.426259,-131.069216
Leu-Yo,17,0,2024-03-04T07:18:47.193Z,male_vraiment_flat_26.wav,1,False,3505,52,masculin,0,0.000000,-135.344658
Leu-Yo,17,0,2024-03-04T07:18:47.193Z,male_vraiment_flat_26.wav,1,False,3505,52,masculin,1,0.071043,-76.172858
Leu-Yo,17,0,2024-03-04T07:18:47.193Z,male_vraiment_flat_26.wav,1,False,3505,52,masculin,2,0.142086,-130.999312
Leu-Yo,17,0,2024-03-04T07:18:47.193Z,male_vraiment_flat_26.wav,1,False,3505,52,masculin,3,0.213129,-146.306144
Leu-Yo,17,0,2024-03-04T07:18:47.193Z,male_vraiment_flat_26.wav,1,False,3505,52,masculin,4,0.284172,-78.266251
Leu-Yo,17,0,2024-03-04T07:18:47.193Z,male_vraiment_flat_26.wav,1,False,3505,52,masculin,5,0.355215,30.254136
Leu-Yo,17,0,2024-03-04T07:18:47.193Z,male_vraiment_flat_26.wav,1,False,3505,52,masculin,6,0.426259,-114.179281
Leu-Yo,18,0,2024-03-04T07:18:47.193Z,male_vraiment_flat_7.wav,0,False,1053,52,masculin,0,0.000000,43.823319
Leu-Yo,18,0,2024-03-04T07:18:47.193Z,male_vraiment_flat_7.wav,0,False,1053,52,masculin,1,0.071043,72.049148
Leu-Yo,18,0,2024-03-04T07:18:47.193Z,male_vraiment_flat_7.wav,0,False,1053,52,masculin,2,0.142086,-136.415247
Leu-Yo,18,0,2024-03-04T07:18:47.193Z,male_vraiment_flat_7.wav,0,False,1053,52,masculin,3,0.213129,44.015310
Leu-Yo,18,0,2024-03-04T07:18:47.193Z,male_vraiment_flat_7.wav,0,False,1053,52,masculin,4,0.284172,7.208530
Leu-Yo,18,0,2024-03-04T07:18:47.193Z,male_vraiment_flat_7.wav,0,False,1053,52,masculin,5,0.355215,18.587432
Leu-Yo,18,0,2024-03-04T07:18:47.193Z,male_vraiment_flat_7.wav,0,False,1053,52,masculin,6,0.426259,60.126473
Leu-Yo,18,0,2024-03-04T07:18:47.193Z,male_vraiment_flat_15.wav,1,True,1053,52,masculin,0,0.000000,-99.515509
Leu-Yo,18,0,2024-03-04T07:18:47.193Z,male_vraiment_flat_15.wav,1,True,1053,52,masculin,1,0.071043,-34.266668
Leu-Yo,18,0,2024-03-04T07:18:47.193Z,male_vraiment_flat_15.wav,1,True,1053,52,masculin,2,0.142086,14.847828
Leu-Yo,18,0,2024-03-04T07:18:47.193Z,male_vraiment_flat_15.wav,1,True,1053,52,masculin,3,0.213129,69.933849
Leu-Yo,18,0,2024-03-04T07:18:47.193Z,male_vraiment_flat_15.wav,1,True,1053,52,masculin,4,0.284172,112.308778
Leu-Yo,18,0,2024-03-04T07:18:47.193Z,male_vraiment_flat_15.wav,1,True,1053,52,masculin,5,0.355215,84.391608
Leu-Yo,18,0,2024-03-04T07:18:47.193Z,male_vraiment_flat_15.wav,1,True,1053,52,masculin,6,0.426259,-74.687150
Leu-Yo,19,0,2024-03-04T07:18:47.193Z,male_vraiment_flat_188.wav,0,False,417,52,masculin,0,0.000000,-11.484944
Leu-Yo,19,0,2024-03-04T07:18:47.193Z,male_vraiment_flat_188.wav,0,False,417,52,masculin,1,0.071043,-70.368872
Leu-Yo,19,0,2024-03-04T07:18:47.193Z,male_vraiment_flat_188.wav,0,False,417,52,masculin,2,0.142086,-35.616146
Leu-Yo,19,0,2024-03-04T07:18:47.193Z,male_vraiment_flat_188.wav,0,False,417,52,masculin,3,0.213129,0.109627
Leu-Yo,19,0,2024-03-04T07:18:47.193Z,male_vraiment_flat_188.wav,0,False,417,52,masculin,4,0.284172,2.553157
Leu-Yo,19,0,2024-03-04T07:18:47.193Z,male_vraiment_flat_188.wav,0,False,417,52,masculin,5,0.355215,-21.302793
Leu-Yo,19,0,2024-03-04T07:18:47.193Z,male_vraiment_flat_188.wav,0,False,417,52,masculin,6,0.426259,-116.307336
Leu-Yo,19,0,2024-03-04T07:18:47.193Z,male_vraiment_flat_42.wav,1,True,417,52,masculin,0,0.000000,-6.709342
Leu-Yo,19,0,2024-03-04T07:18:47.193Z,male_vraiment_flat_42.wav,1,True,417,52,masculin,1,0.071043,35.704202
Leu-Yo,19,0,2024-03-04T07:18:47.193Z,male_vraiment_flat_42.wav,1,True,417,52,masculin,2,0.142086,-71.421689
Leu-Yo,19,0,2024-03-04T07:18:47.193Z,male_vraiment_flat_42.wav,1,True,417,52,masculin,3,0.213129,-126.906461
Leu-Yo,19,0,2024-03-04T07:18:47.193Z,male_vraiment_flat_42.wav,1,True,417,52,masculin,4,0.284172,10.231121
Leu-Yo,19,0,2024-03-04T07:18:47.193Z,male_vraiment_flat_42.wav,1,True,417,52,masculin,5,0.355215,128.933526
Leu-Yo,19,0,2024-03-04T07:18:47.193Z,male_vraiment_flat_42.wav,1,True,417,52,masculin,6,0.426259,-76.727395
Leu-Yo,20,0,2024-03-04T07:18:47.193Z,male_vraiment_flat_6.wav,0,True,502,52,masculin,0,0.000000,99.637695
Leu-Yo,20,0,2024-03-04T07:18:47.193Z,male_vraiment_flat_6.wav,0,True,502,52,masculin,1,0.071043,129.019395
Leu-Yo,20,0,2024-03-04T07:18:47.193Z,male_vraiment_flat_6.wav,0,True,502,52,masculin,2,0.142086,85.352544
Leu-Yo,20,0,2024-03-04T07:18:47.193Z,male_vraiment_flat_6.wav,0,True,502,52,masculin,3,0.213129,122.275637
Leu-Yo,20,0,2024-03-04T07:18:47.193Z,male_vraiment_flat_6.wav,0,True,502,52,masculin,4,0.284172,45.838224
Leu-Yo,20,0,2024-03-04T07:18:47.193Z,male_vraiment_flat_6.wav,0,True,502,52,masculin,5,0.355215,149.126562
Leu-Yo,20,0,2024-03-04T07:18:47.193Z,male_vraiment_flat_6.wav,0,True,502,52,masculin,6,0.426259,9.632372
Leu-Yo,20,0,2024-03-04T07:18:47.193Z,male_vraiment_flat_35.wav,1,False,502,52,masculin,0,0.000000,-80.907759
Leu-Yo,20,0,2024-03-04T07:18:47.193Z,male_vraiment_flat_35.wav,1,False,502,52,masculin,1,0.071043,-44.446048
Leu-Yo,20,0,2024-03-04T07:18:47.193Z,male_vraiment_flat_35.wav,1,False,502,52,masculin,2,0.142086,-51.579277
Leu-Yo,20,0,2024-03-04T07:18:47.193Z,male_vraiment_flat_35.wav,1,False,502,52,masculin,3,0.213129,-66.764099
Leu-Yo,20,0,2024-03-04T07:18:47.193Z,male_vraiment_flat_35.wav,1,False,502,52,masculin,4,0.284172,-35.478686
Leu-Yo,20,0,2024-03-04T07:18:47.193Z,male_vraiment_flat_35.wav,1,False,502,52,masculin,5,0.355215,-86.823570
Leu-Yo,20,0,2024-03-04T07:18:47.193Z,male_vraiment_flat_35.wav,1,False,502,52,masculin,6,0.426259,26.550026
Leu-Yo,21,0,2024-03-04T07:18:47.193Z,male_vraiment_flat_0.wav,0,True,1690,52,masculin,0,0.000000,9.896041
Leu-Yo,21,0,2024-03-04T07:18:47.193Z,male_vraiment_flat_0.wav,0,True,1690,52,masculin,1,0.071043,101.528400
Leu-Yo,21,0,2024-03-04T07:18:47.193Z,male_vraiment_flat_0.wav,0,True,1690,52,masculin,2,0.142086,-68.097850
Leu-Yo,21,0,2024-03-04T07:18:47.193Z,male_vraiment_flat_0.wav,0,True,1690,52,masculin,3,0.213129,-142.658303
Leu-Yo,21,0,2024-03-04T07:18:47.193Z,male_vraiment_flat_0.wav,0,True,1690,52,masculin,4,0.284172,-120.248224
Leu-Yo,21,0,2024-03-04T07:18:47.193Z,male_vraiment_flat_0.wav,0,True,1690,52,masculin,5,0.355215,31.293845
Leu-Yo,21,0,2024-03-04T07:18:47.193Z,male_vraiment_flat_0.wav,0,True,1690,52,masculin,6,0.426259,-137.250528
Leu-Yo,21,0,2024-03-04T07:18:47.193Z,male_vraiment_flat_81.wav,1,False,1690,52,masculin,0,0.000000,35.884214
Leu-Yo,21,0,2024-03-04T07:18:47.193Z,male_vraiment_flat_81.wav,1,False,1690,52,masculin,1,0.071043,19.404831
Leu-Yo,21,0,2024-03-04T07:18:47.193Z,male_vraiment_flat_81.wav,1,False,1690,52,masculin,2,0.142086,121.693264
Leu-Yo,21,0,2024-03-04T07:18:47.193Z,male_vraiment_flat_81.wav,1,False,1690,52,masculin,3,0.213129,29.127429
Leu-Yo,21,0,2024-03-04T07:18:47.193Z,male_vraiment_flat_81.wav,1,False,1690,52,masculin,4,0.284172,71.322417
Leu-Yo,21,0,2024-03-04T07:18:47.193Z,male_vraiment_flat_81.wav,1,False,1690,52,masculin,5,0.355215,138.687922
Leu-Yo,21,0,2024-03-04T07:18:47.193Z,male_vraiment_flat_81.wav,1,False,1690,52,masculin,6,0.426259,110.537915
Leu-Yo,22,0,2024-03-04T07:18:47.193Z,male_vraiment_flat_60.wav,0,False,4959,52,masculin,0,0.000000,-89.296237
Leu-Yo,22,0,2024-03-04T07:18:47.193Z,male_vraiment_flat_60.wav,0,False,4959,52,masculin,1,0.071043,0.647875
Leu-Yo,22,0,2024-03-04T07:18:47.193Z,male_vraiment_flat_60.wav,0,False,4959,52,masculin,2,0.142086,-124.228045
Leu-Yo,22,0,2024-03-04T07:18:47.193Z,male_vraiment_flat_60.wav,0,False,4959,52,masculin,3,0.213129,-147.365900
Leu-Yo,22,0,2024-03-04T07:18:47.193Z,male_vraiment_flat_60.wav,0,False,4959,52,masculin,4,0.284172,-7.428030
Leu-Yo,22,0,2024-03-04T07:18:47.193Z,male_vraiment_flat_60.wav,0,False,4959,52,masculin,5,0.355215,-42.828577
Leu-Yo,22,0,2024-03-04T07:18:47.193Z,male_vraiment_flat_60.wav,0,False,4959,52,masculin,6,0.426259,-114.882786
Leu-Yo,22,0,2024-03-04T07:18:47.193Z,male_vraiment_flat_67.wav,1,True,4959,52,masculin,0,0.000000,3.293259
Leu-Yo,22,0,2024-03-04T07:18:47.193Z,male_vraiment_flat_67.wav,1,True,4959,52,masculin,1,0.071043,-46.547477
Leu-Yo,22,0,2024-03-04T07:18:47.193Z,male_vraiment_flat_67.wav,1,True,4959,52,masculin,2,0.142086,54.624069
Leu-Yo,22,0,2024-03-04T07:18:47.193Z,male_vraiment_flat_67.wav,1,True,4959,52,masculin,3,0.213129,-46.025939
Leu-Yo,22,0,2024-03-04T07:18:47.193Z,male_vraiment_flat_67.wav,1,True,4959,52,masculin,4,0.284172,70.704507
Leu-Yo,22,0,2024-03-04T07:18:47.193Z,male_vraiment_flat_67.wav,1,True,4959,52,masculin,5,0.355215,-47.199237
Leu-Yo,22,0,2024-03-04T07:18:47.193Z,male_vraiment_flat_67.wav,1,True,4959,52,masculin,6,0.426259,147.575842
Leu-Yo,23,0,2024-03-04T07:18:47.193Z,male_vraiment_flat_88.wav,0,True,616,52,masculin,0,0.000000,-104.432443
Leu-Yo,23,0,2024-03-04T07:18:47.193Z,male_vraiment_flat_88.wav,0,True,616,52,masculin,1,0.071043,71.901933
Leu-Yo,23,0,2024-03-04T07:18:47.193Z,male_vraiment_flat_88.wav,0,True,616,52,masculin,2,0.142086,62.017491
Leu-Yo,23,0,2024-03-04T07:18:47.193Z,male_vraiment_flat_88.wav,0,True,616,52,masculin,3,0.213129,-148.109936
Leu-Yo,23,0,2024-03-04T07:18:47.193Z,male_vraiment_flat_88.wav,0,True,616,52,masculin,4,0.284172,21.087169
Leu-Yo,23,0,2024-03-04T07:18:47.193Z,male_vraiment_flat_88.wav,0,True,616,52,masculin,5,0.355215,98.793360
Leu-Yo,23,0,2024-03-04T07:18:47.193Z,male_vraiment_flat_88.wav,0,True,616,52,masculin,6,0.426259,84.960800
Leu-Yo,23,0,2024-03-04T07:18:47.193Z,male_vraiment_flat_109.wav,1,False,616,52,masculin,0,0.000000,47.448278
Leu-Yo,23,0,2024-03-04T07:18:47.193Z,male_vraiment_flat_109.wav,1,False,616,52,masculin,1,0.071043,97.426800
Leu-Yo,23,0,2024-03-04T07:18:47.193Z,male_vraiment_flat_109.wav,1,False,616,52,masculin,2,0.142086,-100.706472
Leu-Yo,23,0,2024-03-04T07:18:47.193Z,male_vraiment_flat_109.wav,1,False,616,52,masculin,3,0.213129,-21.542212
Leu-Yo,23,0,2024-03-04T07:18:47.193Z,male_vraiment_flat_109.wav,1,False,616,52,masculin,4,0.284172,-35.096541
Leu-Yo,23,0,2024-03-04T07:18:47.193Z,male_vraiment_flat_109.wav,1,False,616,52,masculin,5,0.355215,33.270062
Leu-Yo,23,0,2024-03-04T07:18:47.193Z,male_vraiment_flat_109.wav,1,False,616,52,masculin,6,0.426259,35.804127
Leu-Yo,24,0,2024-03-04T07:18:47.193Z,male_vraiment_flat_19.wav,0,False,596,52,masculin,0,0.000000,-23.596543
Leu-Yo,24,0,2024-03-04T07:18:47.193Z,male_vraiment_flat_19.wav,0,False,596,52,masculin,1,0.071043,-71.824414
Leu-Yo,24,0,2024-03-04T07:18:47.193Z,male_vraiment_flat_19.wav,0,False,596,52,masculin,2,0.142086,88.506579
Leu-Yo,24,0,2024-03-04T07:18:47.193Z,male_vraiment_flat_19.wav,0,False,596,52,masculin,3,0.213129,-79.935804
Leu-Yo,24,0,2024-03-04T07:18:47.193Z,male_vraiment_flat_19.wav,0,False,596,52,masculin,4,0.284172,97.974212
Leu-Yo,24,0,2024-03-04T07:18:47.193Z,male_vraiment_flat_19.wav,0,False,596,52,masculin,5,0.355215,-89.439384
Leu-Yo,24,0,2024-03-04T07:18:47.193Z,male_vraiment_flat_19.wav,0,False,596,52,masculin,6,0.426259,-131.198163
Leu-Yo,24,0,2024-03-04T07:18:47.193Z,male_vraiment_flat_39.wav,1,True,596,52,masculin,0,0.000000,111.266402
Leu-Yo,24,0,2024-03-04T07:18:47.193Z,male_vraiment_flat_39.wav,1,True,596,52,masculin,1,0.071043,99.799676
Leu-Yo,24,0,2024-03-04T07:18:47.193Z,male_vraiment_flat_39.wav,1,True,596,52,masculin,2,0.142086,45.272629
Leu-Yo,24,0,2024-03-04T07:18:47.193Z,male_vraiment_flat_39.wav,1,True,596,52,masculin,3,0.213129,-145.406877
Leu-Yo,24,0,2024-03-04T07:18:47.193Z,male_vraiment_flat_39.wav,1,True,596,52,masculin,4,0.284172,46.363124
Leu-Yo,24,0,2024-03-04T07:18:47.193Z,male_vraiment_flat_39.wav,1,True,596,52,masculin,5,0.355215,90.908213
Leu-Yo,24,0,2024-03-04T07:18:47.193Z,male_vraiment_flat_39.wav,1,True,596,52,masculin,6,0.426259,-13.802222
Leu-Yo,25,0,2024-03-04T07:18:47.193Z,male_vraiment_flat_159.wav,0,True,1541,52,masculin,0,0.000000,-84.088119
Leu-Yo,25,0,2024-03-04T07:18:47.193Z,male_vraiment_flat_159.wav,0,True,1541,52,masculin,1,0.071043,11.677970
Leu-Yo,25,0,2024-03-04T07:18:47.193Z,male_vraiment_flat_159.wav,0,True,1541,52,masculin,2,0.142086,70.948823
Leu-Yo,25,0,2024-03-04T07:18:47.193Z,male_vraiment_flat_159.wav,0,True,1541,52,masculin,3,0.213129,101.030552
Leu-Yo,25,0,2024-03-04T07:18:47.193Z,male_vraiment_flat_159.wav,0,True,1541,52,masculin,4,0.284172,35.233409
Leu-Yo,25,0,2024-03-04T07:18:47.193Z,male_vraiment_flat_159.wav,0,True,1541,52,masculin,5,0.355215,70.014692
Leu-Yo,25,0,2024-03-04T07:18:47.193Z,male_vraiment_flat_159.wav,0,True,1541,52,masculin,6,0.426259,-21.284009
Leu-Yo,25,0,2024-03-04T07:18:47.193Z,male_vraiment_flat_144.wav,1,False,1541,52,masculin,0,0.000000,-68.167624
Leu-Yo,25,0,2024-03-04T07:18:47.193Z,male_vraiment_flat_144.wav,1,False,1541,52,masculin,1,0.071043,-79.458647
Leu-Yo,25,0,2024-03-04T07:18:47.193Z,male_vraiment_flat_144.wav,1,False,1541,52,masculin,2,0.142086,-79.660425
Leu-Yo,25,0,2024-03-04T07:18:47.193Z,male_vraiment_flat_144.wav,1,False,1541,52,masculin,3,0.213129,60.124898
Leu-Yo,25,0,2024-03-04T07:18:47.193Z,male_vraiment_flat_144.wav,1,False,1541,52,masculin,4,0.284172,21.367664
Leu-Yo,25,0,2024-03-04T07:18:47.193Z,male_vraiment_flat_144.wav,1,False,1541,52,masculin,5,0.355215,44.158096
Leu-Yo,25,0,2024-03-04T07:18:47.193Z,male_vraiment_flat_144.wav,1,False,1541,52,masculin,6,0.426259,60.089593
Leu-Yo,26,0,2024-03-04T07:18:47.193Z,male_vraiment_flat_48.wav,0,True,4413,52,masculin,0,0.000000,90.503303
Leu-Yo,26,0,2024-03-04T07:18:47.193Z,male_vraiment_flat_48.wav,0,True,4413,52,masculin,1,0.071043,6.970948
Leu-Yo,26,0,2024-03-04T07:18:47.193Z,male_vraiment_flat_48.wav,0,True,4413,52,masculin,2,0.142086,67.030496
Leu-Yo,26,0,2024-03-04T07:18:47.193Z,male_vraiment_flat_48.wav,0,True,4413,52,masculin,3,0.213129,131.765290
Leu-Yo,26,0,2024-03-04T07:18:47.193Z,male_vraiment_flat_48.wav,0,True,4413,52,masculin,4,0.284172,144.593501
Leu-Yo,26,0,2024-03-04T07:18:47.193Z,male_vraiment_flat_48.wav,0,True,4413,52,masculin,5,0.355215,16.017944
Leu-Yo,26,0,2024-03-04T07:18:47.193Z,male_vraiment_flat_48.wav,0,True,4413,52,masculin,6,0.426259,-146.021483
Leu-Yo,26,0,2024-03-04T07:18:47.193Z,male_vraiment_flat_80.wav,1,False,4413,52,masculin,0,0.000000,74.549472
Leu-Yo,26,0,2024-03-04T07:18:47.193Z,male_vraiment_flat_80.wav,1,False,4413,52,masculin,1,0.071043,28.548945
Leu-Yo,26,0,2024-03-04T07:18:47.193Z,male_vraiment_flat_80.wav,1,False,4413,52,masculin,2,0.142086,-70.639605
Leu-Yo,26,0,2024-03-04T07:18:47.193Z,male_vraiment_flat_80.wav,1,False,4413,52,masculin,3,0.213129,105.678511
Leu-Yo,26,0,2024-03-04T07:18:47.193Z,male_vraiment_flat_80.wav,1,False,4413,52,masculin,4,0.284172,54.429698
Leu-Yo,26,0,2024-03-04T07:18:47.193Z,male_vraiment_flat_80.wav,1,False,4413,52,masculin,5,0.355215,38.972413
Leu-Yo,26,0,2024-03-04T07:18:47.193Z,male_vraiment_flat_80.wav,1,False,4413,52,masculin,6,0.426259,36.313071
Leu-Yo,27,0,2024-03-04T07:18:47.193Z,male_vraiment_flat_14.wav,0,True,2682,52,masculin,0,0.000000,-139.491371
Leu-Yo,27,0,2024-03-04T07:18:47.193Z,male_vraiment_flat_14.wav,0,True,2682,52,masculin,1,0.071043,-89.621492
Leu-Yo,27,0,2024-03-04T07:18:47.193Z,male_vraiment_flat_14.wav,0,True,2682,52,masculin,2,0.142086,-85.009614
Leu-Yo,27,0,2024-03-04T07:18:47.193Z,male_vraiment_flat_14.wav,0,True,2682,52,masculin,3,0.213129,-29.902058
Leu-Yo,27,0,2024-03-04T07:18:47.193Z,male_vraiment_flat_14.wav,0,True,2682,52,masculin,4,0.284172,-86.665261
Leu-Yo,27,0,2024-03-04T07:18:47.193Z,male_vraiment_flat_14.wav,0,True,2682,52,masculin,5,0.355215,27.459037
Leu-Yo,27,0,2024-03-04T07:18:47.193Z,male_vraiment_flat_14.wav,0,True,2682,52,masculin,6,0.426259,33.245669
Leu-Yo,27,0,2024-03-04T07:18:47.193Z,male_vraiment_flat_68.wav,1,False,2682,52,masculin,0,0.000000,-95.161618
Leu-Yo,27,0,2024-03-04T07:18:47.193Z,male_vraiment_flat_68.wav,1,False,2682,52,masculin,1,0.071043,-119.152564
Leu-Yo,27,0,2024-03-04T07:18:47.193Z,male_vraiment_flat_68.wav,1,False,2682,52,masculin,2,0.142086,18.051976
Leu-Yo,27,0,2024-03-04T07:18:47.193Z,male_vraiment_flat_68.wav,1,False,2682,52,masculin,3,0.213129,-26.870716
Leu-Yo,27,0,2024-03-04T07:18:47.193Z,male_vraiment_flat_68.wav,1,False,2682,52,masculin,4,0.284172,87.472746
Leu-Yo,27,0,2024-03-04T07:18:47.193Z,male_vraiment_flat_68.wav,1,False,2682,52,masculin,5,0.355215,-56.607347
Leu-Yo,27,0,2024-03-04T07:18:47.193Z,male_vraiment_flat_68.wav,1,False,2682,52,masculin,6,0.426259,148.066508
Leu-Yo,28,0,2024-03-04T07:18:47.193Z,male_vraiment_flat_108.wav,0,True,782,52,masculin,0,0.000000,92.203113
Leu-Yo,28,0,2024-03-04T07:18:47.193Z,male_vraiment_flat_108.wav,0,True,782,52,masculin,1,0.071043,-74.681876
Leu-Yo,28,0,2024-03-04T07:18:47.193Z,male_vraiment_flat_108.wav,0,True,782,52,masculin,2,0.142086,-18.773488
Leu-Yo,28,0,2024-03-04T07:18:47.193Z,male_vraiment_flat_108.wav,0,True,782,52,masculin,3,0.213129,73.054230
Leu-Yo,28,0,2024-03-04T07:18:47.193Z,male_vraiment_flat_108.wav,0,True,782,52,masculin,4,0.284172,-72.824646
Leu-Yo,28,0,2024-03-04T07:18:47.193Z,male_vraiment_flat_108.wav,0,True,782,52,masculin,5,0.355215,140.895697
Leu-Yo,28,0,2024-03-04T07:18:47.193Z,male_vraiment_flat_108.wav,0,True,782,52,masculin,6,0.426259,13.161932
Leu-Yo,28,0,2024-03-04T07:18:47.193Z,male_vraiment_flat_65.wav,1,False,782,52,masculin,0,0.000000,104.278510
Leu-Yo,28,0,2024-03-04T07:18:47.193Z,male_vraiment_flat_65.wav,1,False,782,52,masculin,1,0.071043,120.742750
Leu-Yo,28,0,2024-03-04T07:18:47.193Z,male_vraiment_flat_65.wav,1,False,782,52,masculin,2,0.142086,116.963717
Leu-Yo,28,0,2024-03-04T07:18:47.193Z,male_vraiment_flat_65.wav,1,False,782,52,masculin,3,0.213129,-30.167489
Leu-Yo,28,0,2024-03-04T07:18:47.193Z,male_vraiment_flat_65.wav,1,False,782,52,masculin,4,0.284172,58.482575
Leu-Yo,28,0,2024-03-04T07:18:47.193Z,male_vraiment_flat_65.wav,1,False,782,52,masculin,5,0.355215,-35.240720
Leu-Yo,28,0,2024-03-04T07:18:47.193Z,male_vraiment_flat_65.wav,1,False,782,52,masculin,6,0.426259,-49.851341
Leu-Yo,29,0,2024-03-04T07:18:47.193Z,male_vraiment_flat_18.wav,0,False,746,52,masculin,0,0.000000,-126.424441
Leu-Yo,29,0,2024-03-04T07:18:47.193Z,male_vraiment_flat_18.wav,0,False,746,52,masculin,1,0.071043,-57.286238
Leu-Yo,29,0,2024-03-04T07:18:47.193Z,male_vraiment_flat_18.wav,0,False,746,52,masculin,2,0.142086,14.494248
Leu-Yo,29,0,2024-03-04T07:18:47.193Z,male_vraiment_flat_18.wav,0,False,746,52,masculin,3,0.213129,11.325267
Leu-Yo,29,0,2024-03-04T07:18:47.193Z,male_vraiment_flat_18.wav,0,False,746,52,masculin,4,0.284172,-20.022709
Leu-Yo,29,0,2024-03-04T07:18:47.193Z,male_vraiment_flat_18.wav,0,False,746,52,masculin,5,0.355215,-67.838631
Leu-Yo,29,0,2024-03-04T07:18:47.193Z,male_vraiment_flat_18.wav,0,False,746,52,masculin,6,0.426259,-75.619086
Leu-Yo,29,0,2024-03-04T07:18:47.193Z,male_vraiment_flat_43.wav,1,True,746,52,masculin,0,0.000000,49.290737
Leu-Yo,29,0,2024-03-04T07:18:47.193Z,male_vraiment_flat_43.wav,1,True,746,52,masculin,1,0.071043,5.814602
Leu-Yo,29,0,2024-03-04T07:18:47.193Z,male_vraiment_flat_43.wav,1,True,746,52,masculin,2,0.142086,-14.528706
Leu-Yo,29,0,2024-03-04T07:18:47.193Z,male_vraiment_flat_43.wav,1,True,746,52,masculin,3,0.213129,53.076799
Leu-Yo,29,0,2024-03-04T07:18:47.193Z,male_vraiment_flat_43.wav,1,True,746,52,masculin,4,0.284172,-30.290069
Leu-Yo,29,0,2024-03-04T07:18:47.193Z,male_vraiment_flat_43.wav,1,True,746,52,masculin,5,0.355215,134.741064
Leu-Yo,29,0,2024-03-04T07:18:47.193Z,male_vraiment_flat_43.wav,1,True,746,52,masculin,6,0.426259,54.746527
Leu-Yo,30,0,2024-03-04T07:18:47.193Z,male_vraiment_flat_58.wav,0,False,815,52,masculin,0,0.000000,-52.909251
Leu-Yo,30,0,2024-03-04T07:18:47.193Z,male_vraiment_flat_58.wav,0,False,815,52,masculin,1,0.071043,-4.560860
Leu-Yo,30,0,2024-03-04T07:18:47.193Z,male_vraiment_flat_58.wav,0,False,815,52,masculin,2,0.142086,-106.285240
Leu-Yo,30,0,2024-03-04T07:18:47.193Z,male_vraiment_flat_58.wav,0,False,815,52,masculin,3,0.213129,-64.474310
Leu-Yo,30,0,2024-03-04T07:18:47.193Z,male_vraiment_flat_58.wav,0,False,815,52,masculin,4,0.284172,-121.964639
Leu-Yo,30,0,2024-03-04T07:18:47.193Z,male_vraiment_flat_58.wav,0,False,815,52,masculin,5,0.355215,35.204504
Leu-Yo,30,0,2024-03-04T07:18:47.193Z,male_vraiment_flat_58.wav,0,False,815,52,masculin,6,0.426259,-7.933790
Leu-Yo,30,0,2024-03-04T07:18:47.193Z,male_vraiment_flat_59.wav,1,True,815,52,masculin,0,0.000000,-36.418372
Leu-Yo,30,0,2024-03-04T07:18:47.193Z,male_vraiment_flat_59.wav,1,True,815,52,masculin,1,0.071043,84.104587
Leu-Yo,30,0,2024-03-04T07:18:47.193Z,male_vraiment_flat_59.wav,1,True,815,52,masculin,2,0.142086,132.070943
Leu-Yo,30,0,2024-03-04T07:18:47.193Z,male_vraiment_flat_59.wav,1,True,815,52,masculin,3,0.213129,-36.088233
Leu-Yo,30,0,2024-03-04T07:18:47.193Z,male_vraiment_flat_59.wav,1,True,815,52,masculin,4,0.284172,-93.351425
Leu-Yo,30,0,2024-03-04T07:18:47.193Z,male_vraiment_flat_59.wav,1,True,815,52,masculin,5,0.355215,57.665522
Leu-Yo,30,0,2024-03-04T07:18:47.193Z,male_vraiment_flat_59.wav,1,True,815,52,masculin,6,0.426259,137.323922
Leu-Yo,31,0,2024-03-04T07:18:47.193Z,male_vraiment_flat_13.wav,0,True,1063,52,masculin,0,0.000000,-66.984077
Leu-Yo,31,0,2024-03-04T07:18:47.193Z,male_vraiment_flat_13.wav,0,True,1063,52,masculin,1,0.071043,5.429279
Leu-Yo,31,0,2024-03-04T07:18:47.193Z,male_vraiment_flat_13.wav,0,True,1063,52,masculin,2,0.142086,12.572717
Leu-Yo,31,0,2024-03-04T07:18:47.193Z,male_vraiment_flat_13.wav,0,True,1063,52,masculin,3,0.213129,-71.562953
Leu-Yo,31,0,2024-03-04T07:18:47.193Z,male_vraiment_flat_13.wav,0,True,1063,52,masculin,4,0.284172,-107.999901
Leu-Yo,31,0,2024-03-04T07:18:47.193Z,male_vraiment_flat_13.wav,0,True,1063,52,masculin,5,0.355215,86.606735
Leu-Yo,31,0,2024-03-04T07:18:47.193Z,male_vraiment_flat_13.wav,0,True,1063,52,masculin,6,0.426259,-82.122177
Leu-Yo,31,0,2024-03-04T07:18:47.193Z,male_vraiment_flat_149.wav,1,False,1063,52,masculin,0,0.000000,17.402596
Leu-Yo,31,0,2024-03-04T07:18:47.193Z,male_vraiment_flat_149.wav,1,False,1063,52,masculin,1,0.071043,-44.390985
Leu-Yo,31,0,2024-03-04T07:18:47.193Z,male_vraiment_flat_149.wav,1,False,1063,52,masculin,2,0.142086,-32.370244
Leu-Yo,31,0,2024-03-04T07:18:47.193Z,male_vraiment_flat_149.wav,1,False,1063,52,masculin,3,0.213129,33.896100
Leu-Yo,31,0,2024-03-04T07:18:47.193Z,male_vraiment_flat_149.wav,1,False,1063,52,masculin,4,0.284172,130.098177
Leu-Yo,31,0,2024-03-04T07:18:47.193Z,male_vraiment_flat_149.wav,1,False,1063,52,masculin,5,0.355215,-117.346579
Leu-Yo,31,0,2024-03-04T07:18:47.193Z,male_vraiment_flat_149.wav,1,False,1063,52,masculin,6,0.426259,65.375118
Leu-Yo,32,0,2024-03-04T07:18:47.193Z,male_vraiment_flat_130.wav,0,False,1228,52,masculin,0,0.000000,-146.057737
Leu-Yo,32,0,2024-03-04T07:18:47.193Z,male_vraiment_flat_130.wav,0,False,1228,52,masculin,1,0.071043,-49.781911
Leu-Yo,32,0,2024-03-04T07:18:47.193Z,male_vraiment_flat_130.wav,0,False,1228,52,masculin,2,0.142086,74.893740
Leu-Yo,32,0,2024-03-04T07:18:47.193Z,male_vraiment_flat_130.wav,0,False,1228,52,masculin,3,0.213129,-14.505163
Leu-Yo,32,0,2024-03-04T07:18:47.193Z,male_vraiment_flat_130.wav,0,False,1228,52,masculin,4,0.284172,16.979815
Leu-Yo,32,0,2024-03-04T07:18:47.193Z,male_vraiment_flat_130.wav,0,False,1228,52,masculin,5,0.355215,-66.512052
Leu-Yo,32,0,2024-03-04T07:18:47.193Z,male_vraiment_flat_130.wav,0,False,1228,52,masculin,6,0.426259,-59.569067
Leu-Yo,32,0,2024-03-04T07:18:47.193Z,male_vraiment_flat_22.wav,1,True,1228,52,masculin,0,0.000000,131.811490
Leu-Yo,32,0,2024-03-04T07:18:47.193Z,male_vraiment_flat_22.wav,1,True,1228,52,masculin,1,0.071043,-17.710289
Leu-Yo,32,0,2024-03-04T07:18:47.193Z,male_vraiment_flat_22.wav,1,True,1228,52,masculin,2,0.142086,-106.310722
Leu-Yo,32,0,2024-03-04T07:18:47.193Z,male_vraiment_flat_22.wav,1,True,1228,52,masculin,3,0.213129,-118.997283
Leu-Yo,32,0,2024-03-04T07:18:47.193Z,male_vraiment_flat_22.wav,1,True,1228,52,masculin,4,0.284172,-44.158651
Leu-Yo,32,0,2024-03-04T07:18:47.193Z,male_vraiment_flat_22.wav,1,True,1228,52,masculin,5,0.355215,-65.057904
Leu-Yo,32,0,2024-03-04T07:18:47.193Z,male_vraiment_flat_22.wav,1,True,1228,52,masculin,6,0.426259,142.657358
Leu-Yo,33,0,2024-03-04T07:18:47.193Z,male_vraiment_flat_56.wav,0,True,788,52,masculin,0,0.000000,30.953431
Leu-Yo,33,0,2024-03-04T07:18:47.193Z,male_vraiment_flat_56.wav,0,True,788,52,masculin,1,0.071043,-50.543389
Leu-Yo,33,0,2024-03-04T07:18:47.193Z,male_vraiment_flat_56.wav,0,True,788,52,masculin,2,0.142086,-40.325616
Leu-Yo,33,0,2024-03-04T07:18:47.193Z,male_vraiment_flat_56.wav,0,True,788,52,masculin,3,0.213129,130.397773
Leu-Yo,33,0,2024-03-04T07:18:47.193Z,male_vraiment_flat_56.wav,0,True,788,52,masculin,4,0.284172,-66.278306
Leu-Yo,33,0,2024-03-04T07:18:47.193Z,male_vraiment_flat_56.wav,0,True,788,52,masculin,5,0.355215,127.583751
Leu-Yo,33,0,2024-03-04T07:18:47.193Z,male_vraiment_flat_56.wav,0,True,788,52,masculin,6,0.426259,-120.769688
Leu-Yo,33,0,2024-03-04T07:18:47.193Z,male_vraiment_flat_93.wav,1,False,788,52,masculin,0,0.000000,89.760217
Leu-Yo,33,0,2024-03-04T07:18:47.193Z,male_vraiment_flat_93.wav,1,False,788,52,masculin,1,0.071043,18.591855
Leu-Yo,33,0,2024-03-04T07:18:47.193Z,male_vraiment_flat_93.wav,1,False,788,52,masculin,2,0.142086,63.582537
Leu-Yo,33,0,2024-03-04T07:18:47.193Z,male_vraiment_flat_93.wav,1,False,788,52,masculin,3,0.213129,147.491611
Leu-Yo,33,0,2024-03-04T07:18:47.193Z,male_vraiment_flat_93.wav,1,False,788,52,masculin,4,0.284172,-113.128196
Leu-Yo,33,0,2024-03-04T07:18:47.193Z,male_vraiment_flat_93.wav,1,False,788,52,masculin,5,0.355215,12.197118
Leu-Yo,33,0,2024-03-04T07:18:47.193Z,male_vraiment_flat_93.wav,1,False,788,52,masculin,6,0.426259,-36.730637
Leu-Yo,34,0,2024-03-04T07:18:47.193Z,male_vraiment_flat_140.wav,0,True,10494,52,masculin,0,0.000000,-149.304179
Leu-Yo,34,0,2024-03-04T07:18:47.193Z,male_vraiment_flat_140.wav,0,True,10494,52,masculin,1,0.071043,148.600586
Leu-Yo,34,0,2024-03-04T07:18:47.193Z,male_vraiment_flat_140.wav,0,True,10494,52,masculin,2,0.142086,-115.715849
Leu-Yo,34,0,2024-03-04T07:18:47.193Z,male_vraiment_flat_140.wav,0,True,10494,52,masculin,3,0.213129,139.265939
Leu-Yo,34,0,2024-03-04T07:18:47.193Z,male_vraiment_flat_140.wav,0,True,10494,52,masculin,4,0.284172,45.121427
Leu-Yo,34,0,2024-03-04T07:18:47.193Z,male_vraiment_flat_140.wav,0,True,10494,52,masculin,5,0.355215,-93.318951
Leu-Yo,34,0,2024-03-04T07:18:47.193Z,male_vraiment_flat_140.wav,0,True,10494,52,masculin,6,0.426259,-66.215565
Leu-Yo,34,0,2024-03-04T07:18:47.193Z,male_vraiment_flat_71.wav,1,False,10494,52,masculin,0,0.000000,98.558580
Leu-Yo,34,0,2024-03-04T07:18:47.193Z,male_vraiment_flat_71.wav,1,False,10494,52,masculin,1,0.071043,119.886109
Leu-Yo,34,0,2024-03-04T07:18:47.193Z,male_vraiment_flat_71.wav,1,False,10494,52,masculin,2,0.142086,-7.976954
Leu-Yo,34,0,2024-03-04T07:18:47.193Z,male_vraiment_flat_71.wav,1,False,10494,52,masculin,3,0.213129,7.397873
Leu-Yo,34,0,2024-03-04T07:18:47.193Z,male_vraiment_flat_71.wav,1,False,10494,52,masculin,4,0.284172,8.946833
Leu-Yo,34,0,2024-03-04T07:18:47.193Z,male_vraiment_flat_71.wav,1,False,10494,52,masculin,5,0.355215,-77.850016
Leu-Yo,34,0,2024-03-04T07:18:47.193Z,male_vraiment_flat_71.wav,1,False,10494,52,masculin,6,0.426259,-8.433981
Leu-Yo,35,0,2024-03-04T07:18:47.193Z,male_vraiment_flat_136.wav,0,True,498,52,masculin,0,0.000000,-47.296851
Leu-Yo,35,0,2024-03-04T07:18:47.193Z,male_vraiment_flat_136.wav,0,True,498,52,masculin,1,0.071043,-58.430070
Leu-Yo,35,0,2024-03-04T07:18:47.193Z,male_vraiment_flat_136.wav,0,True,498,52,masculin,2,0.142086,-0.935981
Leu-Yo,35,0,2024-03-04T07:18:47.193Z,male_vraiment_flat_136.wav,0,True,498,52,masculin,3,0.213129,-128.690729
Leu-Yo,35,0,2024-03-04T07:18:47.193Z,male_vraiment_flat_136.wav,0,True,498,52,masculin,4,0.284172,49.658863
Leu-Yo,35,0,2024-03-04T07:18:47.193Z,male_vraiment_flat_136.wav,0,True,498,52,masculin,5,0.355215,66.569477
Leu-Yo,35,0,2024-03-04T07:18:47.193Z,male_vraiment_flat_136.wav,0,True,498,52,masculin,6,0.426259,92.598952
Leu-Yo,35,0,2024-03-04T07:18:47.193Z,male_vraiment_flat_198.wav,1,False,498,52,masculin,0,0.000000,-103.630506
Leu-Yo,35,0,2024-03-04T07:18:47.193Z,male_vraiment_flat_198.wav,1,False,498,52,masculin,1,0.071043,-84.165473
Leu-Yo,35,0,2024-03-04T07:18:47.193Z,male_vraiment_flat_198.wav,1,False,498,52,masculin,2,0.142086,-14.577431
Leu-Yo,35,0,2024-03-04T07:18:47.193Z,male_vraiment_flat_198.wav,1,False,498,52,masculin,3,0.213129,28.146235
Leu-Yo,35,0,2024-03-04T07:18:47.193Z,male_vraiment_flat_198.wav,1,False,498,52,masculin,4,0.284172,-80.575165
Leu-Yo,35,0,2024-03-04T07:18:47.193Z,male_vraiment_flat_198.wav,1,False,498,52,masculin,5,0.355215,-32.118902
Leu-Yo,35,0,2024-03-04T07:18:47.193Z,male_vraiment_flat_198.wav,1,False,498,52,masculin,6,0.426259,78.303148
Leu-Yo,36,0,2024-03-04T07:18:47.193Z,male_vraiment_flat_87.wav,0,True,1386,52,masculin,0,0.000000,123.541183
Leu-Yo,36,0,2024-03-04T07:18:47.193Z,male_vraiment_flat_87.wav,0,True,1386,52,masculin,1,0.071043,-79.641893
Leu-Yo,36,0,2024-03-04T07:18:47.193Z,male_vraiment_flat_87.wav,0,True,1386,52,masculin,2,0.142086,-129.036775
Leu-Yo,36,0,2024-03-04T07:18:47.193Z,male_vraiment_flat_87.wav,0,True,1386,52,masculin,3,0.213129,-12.372422
Leu-Yo,36,0,2024-03-04T07:18:47.193Z,male_vraiment_flat_87.wav,0,True,1386,52,masculin,4,0.284172,47.099802
Leu-Yo,36,0,2024-03-04T07:18:47.193Z,male_vraiment_flat_87.wav,0,True,1386,52,masculin,5,0.355215,133.796504
Leu-Yo,36,0,2024-03-04T07:18:47.193Z,male_vraiment_flat_87.wav,0,True,1386,52,masculin,6,0.426259,125.051187
Leu-Yo,36,0,2024-03-04T07:18:47.193Z,male_vraiment_flat_145.wav,1,False,1386,52,masculin,0,0.000000,-57.363512
Leu-Yo,36,0,2024-03-04T07:18:47.193Z,male_vraiment_flat_145.wav,1,False,1386,52,masculin,1,0.071043,98.212837
Leu-Yo,36,0,2024-03-04T07:18:47.193Z,male_vraiment_flat_145.wav,1,False,1386,52,masculin,2,0.142086,141.769894
Leu-Yo,36,0,2024-03-04T07:18:47.193Z,male_vraiment_flat_145.wav,1,False,1386,52,masculin,3,0.213129,137.732142
Leu-Yo,36,0,2024-03-04T07:18:47.193Z,male_vraiment_flat_145.wav,1,False,1386,52,masculin,4,0.284172,20.834317
Leu-Yo,36,0,2024-03-04T07:18:47.193Z,male_vraiment_flat_145.wav,1,False,1386,52,masculin,5,0.355215,-134.972350
Leu-Yo,36,0,2024-03-04T07:18:47.193Z,male_vraiment_flat_145.wav,1,False,1386,52,masculin,6,0.426259,-28.162434
Leu-Yo,37,0,2024-03-04T07:18:47.193Z,male_vraiment_flat_8.wav,0,False,3447,52,masculin,0,0.000000,88.027847
Leu-Yo,37,0,2024-03-04T07:18:47.193Z,male_vraiment_flat_8.wav,0,False,3447,52,masculin,1,0.071043,-108.976227
Leu-Yo,37,0,2024-03-04T07:18:47.193Z,male_vraiment_flat_8.wav,0,False,3447,52,masculin,2,0.142086,36.591048
Leu-Yo,37,0,2024-03-04T07:18:47.193Z,male_vraiment_flat_8.wav,0,False,3447,52,masculin,3,0.213129,7.260113
Leu-Yo,37,0,2024-03-04T07:18:47.193Z,male_vraiment_flat_8.wav,0,False,3447,52,masculin,4,0.284172,-133.690195
Leu-Yo,37,0,2024-03-04T07:18:47.193Z,male_vraiment_flat_8.wav,0,False,3447,52,masculin,5,0.355215,9.464811
Leu-Yo,37,0,2024-03-04T07:18:47.193Z,male_vraiment_flat_8.wav,0,False,3447,52,masculin,6,0.426259,-67.780032
Leu-Yo,37,0,2024-03-04T07:18:47.193Z,male_vraiment_flat_127.wav,1,True,3447,52,masculin,0,0.000000,143.598511
Leu-Yo,37,0,2024-03-04T07:18:47.193Z,male_vraiment_flat_127.wav,1,True,3447,52,masculin,1,0.071043,23.645136
Leu-Yo,37,0,2024-03-04T07:18:47.193Z,male_vraiment_flat_127.wav,1,True,3447,52,masculin,2,0.142086,-118.740497
Leu-Yo,37,0,2024-03-04T07:18:47.193Z,male_vraiment_flat_127.wav,1,True,3447,52,masculin,3,0.213129,-109.046436
Leu-Yo,37,0,2024-03-04T07:18:47.193Z,male_vraiment_flat_127.wav,1,True,3447,52,masculin,4,0.284172,66.022521
Leu-Yo,37,0,2024-03-04T07:18:47.193Z,male_vraiment_flat_127.wav,1,True,3447,52,masculin,5,0.355215,-13.059175
Leu-Yo,37,0,2024-03-04T07:18:47.193Z,male_vraiment_flat_127.wav,1,True,3447,52,masculin,6,0.426259,22.700660
Leu-Yo,38,0,2024-03-04T07:18:47.193Z,male_vraiment_flat_113.wav,0,True,1192,52,masculin,0,0.000000,52.176539
Leu-Yo,38,0,2024-03-04T07:18:47.193Z,male_vraiment_flat_113.wav,0,True,1192,52,masculin,1,0.071043,52.904766
Leu-Yo,38,0,2024-03-04T07:18:47.193Z,male_vraiment_flat_113.wav,0,True,1192,52,masculin,2,0.142086,-138.473207
Leu-Yo,38,0,2024-03-04T07:18:47.193Z,male_vraiment_flat_113.wav,0,True,1192,52,masculin,3,0.213129,-65.217652
Leu-Yo,38,0,2024-03-04T07:18:47.193Z,male_vraiment_flat_113.wav,0,True,1192,52,masculin,4,0.284172,3.928053
Leu-Yo,38,0,2024-03-04T07:18:47.193Z,male_vraiment_flat_113.wav,0,True,1192,52,masculin,5,0.355215,69.229623
Leu-Yo,38,0,2024-03-04T07:18:47.193Z,male_vraiment_flat_113.wav,0,True,1192,52,masculin,6,0.426259,-85.157528
Leu-Yo,38,0,2024-03-04T07:18:47.193Z,male_vraiment_flat_126.wav,1,False,1192,52,masculin,0,0.000000,23.450520
Leu-Yo,38,0,2024-03-04T07:18:47.193Z,male_vraiment_flat_126.wav,1,False,1192,52,masculin,1,0.071043,102.584681
Leu-Yo,38,0,2024-03-04T07:18:47.193Z,male_vraiment_flat_126.wav,1,False,1192,52,masculin,2,0.142086,38.224300
Leu-Yo,38,0,2024-03-04T07:18:47.193Z,male_vraiment_flat_126.wav,1,False,1192,52,masculin,3,0.213129,-16.427695
Leu-Yo,38,0,2024-03-04T07:18:47.193Z,male_vraiment_flat_126.wav,1,False,1192,52,masculin,4,0.284172,7.421137
Leu-Yo,38,0,2024-03-04T07:18:47.193Z,male_vraiment_flat_126.wav,1,False,1192,52,masculin,5,0.355215,-9.369055
Leu-Yo,38,0,2024-03-04T07:18:47.193Z,male_vraiment_flat_126.wav,1,False,1192,52,masculin,6,0.426259,-89.176758
Leu-Yo,39,0,2024-03-04T07:18:47.193Z,male_vraiment_flat_148.wav,0,False,3136,52,masculin,0,0.000000,-84.148504
Leu-Yo,39,0,2024-03-04T07:18:47.193Z,male_vraiment_flat_148.wav,0,False,3136,52,masculin,1,0.071043,116.395609
Leu-Yo,39,0,2024-03-04T07:18:47.193Z,male_vraiment_flat_148.wav,0,False,3136,52,masculin,2,0.142086,22.272455
Leu-Yo,39,0,2024-03-04T07:18:47.193Z,male_vraiment_flat_148.wav,0,False,3136,52,masculin,3,0.213129,-42.662376
Leu-Yo,39,0,2024-03-04T07:18:47.193Z,male_vraiment_flat_148.wav,0,False,3136,52,masculin,4,0.284172,44.974228
Leu-Yo,39,0,2024-03-04T07:18:47.193Z,male_vraiment_flat_148.wav,0,False,3136,52,masculin,5,0.355215,-100.807841
Leu-Yo,39,0,2024-03-04T07:18:47.193Z,male_vraiment_flat_148.wav,0,False,3136,52,masculin,6,0.426259,75.062158
Leu-Yo,39,0,2024-03-04T07:18:47.193Z,male_vraiment_flat_161.wav,1,True,3136,52,masculin,0,0.000000,108.108554
Leu-Yo,39,0,2024-03-04T07:18:47.193Z,male_vraiment_flat_161.wav,1,True,3136,52,masculin,1,0.071043,47.804173
Leu-Yo,39,0,2024-03-04T07:18:47.193Z,male_vraiment_flat_161.wav,1,True,3136,52,masculin,2,0.142086,-38.721105
Leu-Yo,39,0,2024-03-04T07:18:47.193Z,male_vraiment_flat_161.wav,1,True,3136,52,masculin,3,0.213129,108.595174
Leu-Yo,39,0,2024-03-04T07:18:47.193Z,male_vraiment_flat_161.wav,1,True,3136,52,masculin,4,0.284172,94.751032
Leu-Yo,39,0,2024-03-04T07:18:47.193Z,male_vraiment_flat_161.wav,1,True,3136,52,masculin,5,0.355215,-22.399732
Leu-Yo,39,0,2024-03-04T07:18:47.193Z,male_vraiment_flat_161.wav,1,True,3136,52,masculin,6,0.426259,88.139884
Leu-Yo,40,0,2024-03-04T07:18:47.193Z,male_vraiment_flat_102.wav,0,True,584,52,masculin,0,0.000000,-40.599677
Leu-Yo,40,0,2024-03-04T07:18:47.193Z,male_vraiment_flat_102.wav,0,True,584,52,masculin,1,0.071043,73.648850
Leu-Yo,40,0,2024-03-04T07:18:47.193Z,male_vraiment_flat_102.wav,0,True,584,52,masculin,2,0.142086,15.923898
Leu-Yo,40,0,2024-03-04T07:18:47.193Z,male_vraiment_flat_102.wav,0,True,584,52,masculin,3,0.213129,-109.098836
Leu-Yo,40,0,2024-03-04T07:18:47.193Z,male_vraiment_flat_102.wav,0,True,584,52,masculin,4,0.284172,134.536605
Leu-Yo,40,0,2024-03-04T07:18:47.193Z,male_vraiment_flat_102.wav,0,True,584,52,masculin,5,0.355215,127.784516
Leu-Yo,40,0,2024-03-04T07:18:47.193Z,male_vraiment_flat_102.wav,0,True,584,52,masculin,6,0.426259,-136.569602
Leu-Yo,40,0,2024-03-04T07:18:47.193Z,male_vraiment_flat_129.wav,1,False,584,52,masculin,0,0.000000,121.236122
Leu-Yo,40,0,2024-03-04T07:18:47.193Z,male_vraiment_flat_129.wav,1,False,584,52,masculin,1,0.071043,8.396736
Leu-Yo,40,0,2024-03-04T07:18:47.193Z,male_vraiment_flat_129.wav,1,False,584,52,masculin,2,0.142086,-17.691364
Leu-Yo,40,0,2024-03-04T07:18:47.193Z,male_vraiment_flat_129.wav,1,False,584,52,masculin,3,0.213129,73.711335
Leu-Yo,40,0,2024-03-04T07:18:47.193Z,male_vraiment_flat_129.wav,1,False,584,52,masculin,4,0.284172,-117.430618
Leu-Yo,40,0,2024-03-04T07:18:47.193Z,male_vraiment_flat_129.wav,1,False,584,52,masculin,5,0.355215,-12.936057
Leu-Yo,40,0,2024-03-04T07:18:47.193Z,male_vraiment_flat_129.wav,1,False,584,52,masculin,6,0.426259,-63.494285
Leu-Yo,41,0,2024-03-04T07:18:47.193Z,male_vraiment_flat_36.wav,0,False,1369,52,masculin,0,0.000000,-33.837960
Leu-Yo,41,0,2024-03-04T07:18:47.193Z,male_vraiment_flat_36.wav,0,False,1369,52,masculin,1,0.071043,102.134309
Leu-Yo,41,0,2024-03-04T07:18:47.193Z,male_vraiment_flat_36.wav,0,False,1369,52,masculin,2,0.142086,100.949665
Leu-Yo,41,0,2024-03-04T07:18:47.193Z,male_vraiment_flat_36.wav,0,False,1369,52,masculin,3,0.213129,77.352428
Leu-Yo,41,0,2024-03-04T07:18:47.193Z,male_vraiment_flat_36.wav,0,False,1369,52,masculin,4,0.284172,-1.995321
Leu-Yo,41,0,2024-03-04T07:18:47.193Z,male_vraiment_flat_36.wav,0,False,1369,52,masculin,5,0.355215,-13.382838
Leu-Yo,41,0,2024-03-04T07:18:47.193Z,male_vraiment_flat_36.wav,0,False,1369,52,masculin,6,0.426259,-42.807835
Leu-Yo,41,0,2024-03-04T07:18:47.193Z,male_vraiment_flat_199.wav,1,True,1369,52,masculin,0,0.000000,-30.664010
Leu-Yo,41,0,2024-03-04T07:18:47.193Z,male_vraiment_flat_199.wav,1,True,1369,52,masculin,1,0.071043,2.060872
Leu-Yo,41,0,2024-03-04T07:18:47.193Z,male_vraiment_flat_199.wav,1,True,1369,52,masculin,2,0.142086,-136.256691
Leu-Yo,41,0,2024-03-04T07:18:47.193Z,male_vraiment_flat_199.wav,1,True,1369,52,masculin,3,0.213129,20.654546
Leu-Yo,41,0,2024-03-04T07:18:47.193Z,male_vraiment_flat_199.wav,1,True,1369,52,masculin,4,0.284172,41.179386
Leu-Yo,41,0,2024-03-04T07:18:47.193Z,male_vraiment_flat_199.wav,1,True,1369,52,masculin,5,0.355215,1.343346
Leu-Yo,41,0,2024-03-04T07:18:47.193Z,male_vraiment_flat_199.wav,1,True,1369,52,masculin,6,0.426259,140.228288
Leu-Yo,42,0,2024-03-04T07:18:47.193Z,male_vraiment_flat_92.wav,0,True,1098,52,masculin,0,0.000000,46.869845
Leu-Yo,42,0,2024-03-04T07:18:47.193Z,male_vraiment_flat_92.wav,0,True,1098,52,masculin,1,0.071043,-22.303854
Leu-Yo,42,0,2024-03-04T07:18:47.193Z,male_vraiment_flat_92.wav,0,True,1098,52,masculin,2,0.142086,54.218629
Leu-Yo,42,0,2024-03-04T07:18:47.193Z,male_vraiment_flat_92.wav,0,True,1098,52,masculin,3,0.213129,-37.706610
Leu-Yo,42,0,2024-03-04T07:18:47.193Z,male_vraiment_flat_92.wav,0,True,1098,52,masculin,4,0.284172,48.467677
Leu-Yo,42,0,2024-03-04T07:18:47.193Z,male_vraiment_flat_92.wav,0,True,1098,52,masculin,5,0.355215,-36.671620
Leu-Yo,42,0,2024-03-04T07:18:47.193Z,male_vraiment_flat_92.wav,0,True,1098,52,masculin,6,0.426259,-103.238186
Leu-Yo,42,0,2024-03-04T07:18:47.193Z,male_vraiment_flat_90.wav,1,False,1098,52,masculin,0,0.000000,39.615876
Leu-Yo,42,0,2024-03-04T07:18:47.193Z,male_vraiment_flat_90.wav,1,False,1098,52,masculin,1,0.071043,-130.464689
Leu-Yo,42,0,2024-03-04T07:18:47.193Z,male_vraiment_flat_90.wav,1,False,1098,52,masculin,2,0.142086,46.838016
Leu-Yo,42,0,2024-03-04T07:18:47.193Z,male_vraiment_flat_90.wav,1,False,1098,52,masculin,3,0.213129,104.861302
Leu-Yo,42,0,2024-03-04T07:18:47.193Z,male_vraiment_flat_90.wav,1,False,1098,52,masculin,4,0.284172,-102.459680
Leu-Yo,42,0,2024-03-04T07:18:47.193Z,male_vraiment_flat_90.wav,1,False,1098,52,masculin,5,0.355215,-91.275011
Leu-Yo,42,0,2024-03-04T07:18:47.193Z,male_vraiment_flat_90.wav,1,False,1098,52,masculin,6,0.426259,45.823426
Leu-Yo,43,0,2024-03-04T07:18:47.193Z,male_vraiment_flat_134.wav,0,True,2234,52,masculin,0,0.000000,85.320049
Leu-Yo,43,0,2024-03-04T07:18:47.193Z,male_vraiment_flat_134.wav,0,True,2234,52,masculin,1,0.071043,2.147850
Leu-Yo,43,0,2024-03-04T07:18:47.193Z,male_vraiment_flat_134.wav,0,True,2234,52,masculin,2,0.142086,140.355465
Leu-Yo,43,0,2024-03-04T07:18:47.193Z,male_vraiment_flat_134.wav,0,True,2234,52,masculin,3,0.213129,98.923070
Leu-Yo,43,0,2024-03-04T07:18:47.193Z,male_vraiment_flat_134.wav,0,True,2234,52,masculin,4,0.284172,20.388975
Leu-Yo,43,0,2024-03-04T07:18:47.193Z,male_vraiment_flat_134.wav,0,True,2234,52,masculin,5,0.355215,-4.239426
Leu-Yo,43,0,2024-03-04T07:18:47.193Z,male_vraiment_flat_134.wav,0,True,2234,52,masculin,6,0.426259,83.444299
Leu-Yo,43,0,2024-03-04T07:18:47.193Z,male_vraiment_flat_170.wav,1,False,2234,52,masculin,0,0.000000,88.489327
Leu-Yo,43,0,2024-03-04T07:18:47.193Z,male_vraiment_flat_170.wav,1,False,2234,52,masculin,1,0.071043,-76.759591
Leu-Yo,43,0,2024-03-04T07:18:47.193Z,male_vraiment_flat_170.wav,1,False,2234,52,masculin,2,0.142086,131.535458
Leu-Yo,43,0,2024-03-04T07:18:47.193Z,male_vraiment_flat_170.wav,1,False,2234,52,masculin,3,0.213129,-66.304272
Leu-Yo,43,0,2024-03-04T07:18:47.193Z,male_vraiment_flat_170.wav,1,False,2234,52,masculin,4,0.284172,82.842237
Leu-Yo,43,0,2024-03-04T07:18:47.193Z,male_vraiment_flat_170.wav,1,False,2234,52,masculin,5,0.355215,39.682087
Leu-Yo,43,0,2024-03-04T07:18:47.193Z,male_vraiment_flat_170.wav,1,False,2234,52,masculin,6,0.426259,-39.313076
Leu-Yo,44,0,2024-03-04T07:18:47.193Z,male_vraiment_flat_100.wav,0,False,626,52,masculin,0,0.000000,43.543409
Leu-Yo,44,0,2024-03-04T07:18:47.193Z,male_vraiment_flat_100.wav,0,False,626,52,masculin,1,0.071043,103.015481
Leu-Yo,44,0,2024-03-04T07:18:47.193Z,male_vraiment_flat_100.wav,0,False,626,52,masculin,2,0.142086,72.119204
Leu-Yo,44,0,2024-03-04T07:18:47.193Z,male_vraiment_flat_100.wav,0,False,626,52,masculin,3,0.213129,-134.244223
Leu-Yo,44,0,2024-03-04T07:18:47.193Z,male_vraiment_flat_100.wav,0,False,626,52,masculin,4,0.284172,118.896008
Leu-Yo,44,0,2024-03-04T07:18:47.193Z,male_vraiment_flat_100.wav,0,False,626,52,masculin,5,0.355215,-31.136245
Leu-Yo,44,0,2024-03-04T07:18:47.193Z,male_vraiment_flat_100.wav,0,False,626,52,masculin,6,0.426259,41.834207
Leu-Yo,44,0,2024-03-04T07:18:47.193Z,male_vraiment_flat_77.wav,1,True,626,52,masculin,0,0.000000,-123.489900
Leu-Yo,44,0,2024-03-04T07:18:47.193Z,male_vraiment_flat_77.wav,1,True,626,52,masculin,1,0.071043,8.804262
Leu-Yo,44,0,2024-03-04T07:18:47.193Z,male_vraiment_flat_77.wav,1,True,626,52,masculin,2,0.142086,-15.205517
Leu-Yo,44,0,2024-03-04T07:18:47.193Z,male_vraiment_flat_77.wav,1,True,626,52,masculin,3,0.213129,7.550940
Leu-Yo,44,0,2024-03-04T07:18:47.193Z,male_vraiment_flat_77.wav,1,True,626,52,masculin,4,0.284172,97.551926
Leu-Yo,44,0,2024-03-04T07:18:47.193Z,male_vraiment_flat_77.wav,1,True,626,52,masculin,5,0.355215,56.352460
Leu-Yo,44,0,2024-03-04T07:18:47.193Z,male_vraiment_flat_77.wav,1,True,626,52,masculin,6,0.426259,-146.779345
Leu-Yo,45,0,2024-03-04T07:18:47.193Z,male_vraiment_flat_166.wav,0,True,1335,52,masculin,0,0.000000,40.484109
Leu-Yo,45,0,2024-03-04T07:18:47.193Z,male_vraiment_flat_166.wav,0,True,1335,52,masculin,1,0.071043,-10.250913
Leu-Yo,45,0,2024-03-04T07:18:47.193Z,male_vraiment_flat_166.wav,0,True,1335,52,masculin,2,0.142086,-109.726305
Leu-Yo,45,0,2024-03-04T07:18:47.193Z,male_vraiment_flat_166.wav,0,True,1335,52,masculin,3,0.213129,-32.205058
Leu-Yo,45,0,2024-03-04T07:18:47.193Z,male_vraiment_flat_166.wav,0,True,1335,52,masculin,4,0.284172,141.461363
Leu-Yo,45,0,2024-03-04T07:18:47.193Z,male_vraiment_flat_166.wav,0,True,1335,52,masculin,5,0.355215,65.199031
Leu-Yo,45,0,2024-03-04T07:18:47.193Z,male_vraiment_flat_166.wav,0,True,1335,52,masculin,6,0.426259,-54.014549
Leu-Yo,45,0,2024-03-04T07:18:47.193Z,male_vraiment_flat_3.wav,1,False,1335,52,masculin,0,0.000000,139.821339
Leu-Yo,45,0,2024-03-04T07:18:47.193Z,male_vraiment_flat_3.wav,1,False,1335,52,masculin,1,0.071043,-90.088416
Leu-Yo,45,0,2024-03-04T07:18:47.193Z,male_vraiment_flat_3.wav,1,False,1335,52,masculin,2,0.142086,-144.376143
Leu-Yo,45,0,2024-03-04T07:18:47.193Z,male_vraiment_flat_3.wav,1,False,1335,52,masculin,3,0.213129,-83.117215
Leu-Yo,45,0,2024-03-04T07:18:47.193Z,male_vraiment_flat_3.wav,1,False,1335,52,masculin,4,0.284172,-15.266959
Leu-Yo,45,0,2024-03-04T07:18:47.193Z,male_vraiment_flat_3.wav,1,False,1335,52,masculin,5,0.355215,-78.645111
Leu-Yo,45,0,2024-03-04T07:18:47.193Z,male_vraiment_flat_3.wav,1,False,1335,52,masculin,6,0.426259,18.566710
Leu-Yo,46,0,2024-03-04T07:18:47.193Z,male_vraiment_flat_195.wav,0,False,3415,52,masculin,0,0.000000,-54.423844
Leu-Yo,46,0,2024-03-04T07:18:47.193Z,male_vraiment_flat_195.wav,0,False,3415,52,masculin,1,0.071043,81.067183
Leu-Yo,46,0,2024-03-04T07:18:47.193Z,male_vraiment_flat_195.wav,0,False,3415,52,masculin,2,0.142086,-60.396049
Leu-Yo,46,0,2024-03-04T07:18:47.193Z,male_vraiment_flat_195.wav,0,False,3415,52,masculin,3,0.213129,-65.685418
Leu-Yo,46,0,2024-03-04T07:18:47.193Z,male_vraiment_flat_195.wav,0,False,3415,52,masculin,4,0.284172,141.607211
Leu-Yo,46,0,2024-03-04T07:18:47.193Z,male_vraiment_flat_195.wav,0,False,3415,52,masculin,5,0.355215,37.879388
Leu-Yo,46,0,2024-03-04T07:18:47.193Z,male_vraiment_flat_195.wav,0,False,3415,52,masculin,6,0.426259,-52.972183
Leu-Yo,46,0,2024-03-04T07:18:47.193Z,male_vraiment_flat_168.wav,1,True,3415,52,masculin,0,0.000000,20.996757
Leu-Yo,46,0,2024-03-04T07:18:47.193Z,male_vraiment_flat_168.wav,1,True,3415,52,masculin,1,0.071043,53.221671
Leu-Yo,46,0,2024-03-04T07:18:47.193Z,male_vraiment_flat_168.wav,1,True,3415,52,masculin,2,0.142086,15.731623
Leu-Yo,46,0,2024-03-04T07:18:47.193Z,male_vraiment_flat_168.wav,1,True,3415,52,masculin,3,0.213129,99.382807
Leu-Yo,46,0,2024-03-04T07:18:47.193Z,male_vraiment_flat_168.wav,1,True,3415,52,masculin,4,0.284172,-57.914754
Leu-Yo,46,0,2024-03-04T07:18:47.193Z,male_vraiment_flat_168.wav,1,True,3415,52,masculin,5,0.355215,26.961730
Leu-Yo,46,0,2024-03-04T07:18:47.193Z,male_vraiment_flat_168.wav,1,True,3415,52,masculin,6,0.426259,-63.149674
Leu-Yo,47,0,2024-03-04T07:18:47.193Z,male_vraiment_flat_173.wav,0,True,980,52,masculin,0,0.000000,-99.731768
Leu-Yo,47,0,2024-03-04T07:18:47.193Z,male_vraiment_flat_173.wav,0,True,980,52,masculin,1,0.071043,-42.486722
Leu-Yo,47,0,2024-03-04T07:18:47.193Z,male_vraiment_flat_173.wav,0,True,980,52,masculin,2,0.142086,49.610636
Leu-Yo,47,0,2024-03-04T07:18:47.193Z,male_vraiment_flat_173.wav,0,True,980,52,masculin,3,0.213129,-115.961177
Leu-Yo,47,0,2024-03-04T07:18:47.193Z,male_vraiment_flat_173.wav,0,True,980,52,masculin,4,0.284172,-68.693255
Leu-Yo,47,0,2024-03-04T07:18:47.193Z,male_vraiment_flat_173.wav,0,True,980,52,masculin,5,0.355215,105.434903
Leu-Yo,47,0,2024-03-04T07:18:47.193Z,male_vraiment_flat_173.wav,0,True,980,52,masculin,6,0.426259,5.248120
Leu-Yo,47,0,2024-03-04T07:18:47.193Z,male_vraiment_flat_119.wav,1,False,980,52,masculin,0,0.000000,-44.932226
Leu-Yo,47,0,2024-03-04T07:18:47.193Z,male_vraiment_flat_119.wav,1,False,980,52,masculin,1,0.071043,12.460519
Leu-Yo,47,0,2024-03-04T07:18:47.193Z,male_vraiment_flat_119.wav,1,False,980,52,masculin,2,0.142086,58.855712
Leu-Yo,47,0,2024-03-04T07:18:47.193Z,male_vraiment_flat_119.wav,1,False,980,52,masculin,3,0.213129,26.967779
Leu-Yo,47,0,2024-03-04T07:18:47.193Z,male_vraiment_flat_119.wav,1,False,980,52,masculin,4,0.284172,139.969902
Leu-Yo,47,0,2024-03-04T07:18:47.193Z,male_vraiment_flat_119.wav,1,False,980,52,masculin,5,0.355215,49.325586
Leu-Yo,47,0,2024-03-04T07:18:47.193Z,male_vraiment_flat_119.wav,1,False,980,52,masculin,6,0.426259,89.552624
Leu-Yo,48,0,2024-03-04T07:18:47.193Z,male_vraiment_flat_38.wav,0,True,2536,52,masculin,0,0.000000,144.136513
Leu-Yo,48,0,2024-03-04T07:18:47.193Z,male_vraiment_flat_38.wav,0,True,2536,52,masculin,1,0.071043,-64.103106
Leu-Yo,48,0,2024-03-04T07:18:47.193Z,male_vraiment_flat_38.wav,0,True,2536,52,masculin,2,0.142086,-98.673112
Leu-Yo,48,0,2024-03-04T07:18:47.193Z,male_vraiment_flat_38.wav,0,True,2536,52,masculin,3,0.213129,-23.920097
Leu-Yo,48,0,2024-03-04T07:18:47.193Z,male_vraiment_flat_38.wav,0,True,2536,52,masculin,4,0.284172,-49.884553
Leu-Yo,48,0,2024-03-04T07:18:47.193Z,male_vraiment_flat_38.wav,0,True,2536,52,masculin,5,0.355215,-104.927811
Leu-Yo,48,0,2024-03-04T07:18:47.193Z,male_vraiment_flat_38.wav,0,True,2536,52,masculin,6,0.426259,133.075001
Leu-Yo,48,0,2024-03-04T07:18:47.193Z,male_vraiment_flat_186.wav,1,False,2536,52,masculin,0,0.000000,-146.338275
Leu-Yo,48,0,2024-03-04T07:18:47.193Z,male_vraiment_flat_186.wav,1,False,2536,52,masculin,1,0.071043,17.632346
Leu-Yo,48,0,2024-03-04T07:18:47.193Z,male_vraiment_flat_186.wav,1,False,2536,52,masculin,2,0.142086,135.683559
Leu-Yo,48,0,2024-03-04T07:18:47.193Z,male_vraiment_flat_186.wav,1,False,2536,52,masculin,3,0.213129,133.054558
Leu-Yo,48,0,2024-03-04T07:18:47.193Z,male_vraiment_flat_186.wav,1,False,2536,52,masculin,4,0.284172,-31.983178
Leu-Yo,48,0,2024-03-04T07:18:47.193Z,male_vraiment_flat_186.wav,1,False,2536,52,masculin,5,0.355215,-117.937109
Leu-Yo,48,0,2024-03-04T07:18:47.193Z,male_vraiment_flat_186.wav,1,False,2536,52,masculin,6,0.426259,-78.681829
Leu-Yo,49,0,2024-03-04T07:18:47.193Z,male_vraiment_flat_29.wav,0,True,2921,52,masculin,0,0.000000,78.626852
Leu-Yo,49,0,2024-03-04T07:18:47.193Z,male_vraiment_flat_29.wav,0,True,2921,52,masculin,1,0.071043,124.163952
Leu-Yo,49,0,2024-03-04T07:18:47.193Z,male_vraiment_flat_29.wav,0,True,2921,52,masculin,2,0.142086,-62.289103
Leu-Yo,49,0,2024-03-04T07:18:47.193Z,male_vraiment_flat_29.wav,0,True,2921,52,masculin,3,0.213129,54.806982
Leu-Yo,49,0,2024-03-04T07:18:47.193Z,male_vraiment_flat_29.wav,0,True,2921,52,masculin,4,0.284172,75.809549
Leu-Yo,49,0,2024-03-04T07:18:47.193Z,male_vraiment_flat_29.wav,0,True,2921,52,masculin,5,0.355215,87.233703
Leu-Yo,49,0,2024-03-04T07:18:47.193Z,male_vraiment_flat_29.wav,0,True,2921,52,masculin,6,0.426259,-95.916715
Leu-Yo,49,0,2024-03-04T07:18:47.193Z,male_vraiment_flat_141.wav,1,False,2921,52,masculin,0,0.000000,137.275446
Leu-Yo,49,0,2024-03-04T07:18:47.193Z,male_vraiment_flat_141.wav,1,False,2921,52,masculin,1,0.071043,43.805847
Leu-Yo,49,0,2024-03-04T07:18:47.193Z,male_vraiment_flat_141.wav,1,False,2921,52,masculin,2,0.142086,-129.344909
Leu-Yo,49,0,2024-03-04T07:18:47.193Z,male_vraiment_flat_141.wav,1,False,2921,52,masculin,3,0.213129,-123.799171
Leu-Yo,49,0,2024-03-04T07:18:47.193Z,male_vraiment_flat_141.wav,1,False,2921,52,masculin,4,0.284172,-103.584410
Leu-Yo,49,0,2024-03-04T07:18:47.193Z,male_vraiment_flat_141.wav,1,False,2921,52,masculin,5,0.355215,8.047141
Leu-Yo,49,0,2024-03-04T07:18:47.193Z,male_vraiment_flat_141.wav,1,False,2921,52,masculin,6,0.426259,-108.188423
Leu-Yo,50,1,2024-03-04T07:18:47.193Z,male_vraiment_flat_172.wav,0,False,790,52,masculin,0,0.000000,-63.308139
Leu-Yo,50,1,2024-03-04T07:18:47.193Z,male_vraiment_flat_172.wav,0,False,790,52,masculin,1,0.071043,-111.693367
Leu-Yo,50,1,2024-03-04T07:18:47.193Z,male_vraiment_flat_172.wav,0,False,790,52,masculin,2,0.142086,-61.444624
Leu-Yo,50,1,2024-03-04T07:18:47.193Z,male_vraiment_flat_172.wav,0,False,790,52,masculin,3,0.213129,137.201589
Leu-Yo,50,1,2024-03-04T07:18:47.193Z,male_vraiment_flat_172.wav,0,False,790,52,masculin,4,0.284172,-132.973462
Leu-Yo,50,1,2024-03-04T07:18:47.193Z,male_vraiment_flat_172.wav,0,False,790,52,masculin,5,0.355215,-126.405577
Leu-Yo,50,1,2024-03-04T07:18:47.193Z,male_vraiment_flat_172.wav,0,False,790,52,masculin,6,0.426259,-119.840486
Leu-Yo,50,1,2024-03-04T07:18:47.193Z,male_vraiment_flat_196.wav,1,True,790,52,masculin,0,0.000000,-42.342747
Leu-Yo,50,1,2024-03-04T07:18:47.193Z,male_vraiment_flat_196.wav,1,True,790,52,masculin,1,0.071043,-81.868734
Leu-Yo,50,1,2024-03-04T07:18:47.193Z,male_vraiment_flat_196.wav,1,True,790,52,masculin,2,0.142086,-18.906552
Leu-Yo,50,1,2024-03-04T07:18:47.193Z,male_vraiment_flat_196.wav,1,True,790,52,masculin,3,0.213129,-18.852092
Leu-Yo,50,1,2024-03-04T07:18:47.193Z,male_vraiment_flat_196.wav,1,True,790,52,masculin,4,0.284172,52.116670
Leu-Yo,50,1,2024-03-04T07:18:47.193Z,male_vraiment_flat_196.wav,1,True,790,52,masculin,5,0.355215,90.577409
Leu-Yo,50,1,2024-03-04T07:18:47.193Z,male_vraiment_flat_196.wav,1,True,790,52,masculin,6,0.426259,29.772760
Leu-Yo,51,1,2024-03-04T07:18:47.193Z,male_vraiment_flat_163.wav,0,True,9520,52,masculin,0,0.000000,-73.767207
Leu-Yo,51,1,2024-03-04T07:18:47.193Z,male_vraiment_flat_163.wav,0,True,9520,52,masculin,1,0.071043,23.213677
Leu-Yo,51,1,2024-03-04T07:18:47.193Z,male_vraiment_flat_163.wav,0,True,9520,52,masculin,2,0.142086,-14.939662
Leu-Yo,51,1,2024-03-04T07:18:47.193Z,male_vraiment_flat_163.wav,0,True,9520,52,masculin,3,0.213129,-71.864469
Leu-Yo,51,1,2024-03-04T07:18:47.193Z,male_vraiment_flat_163.wav,0,True,9520,52,masculin,4,0.284172,-38.295965
Leu-Yo,51,1,2024-03-04T07:18:47.193Z,male_vraiment_flat_163.wav,0,True,9520,52,masculin,5,0.355215,-52.851418
Leu-Yo,51,1,2024-03-04T07:18:47.193Z,male_vraiment_flat_163.wav,0,True,9520,52,masculin,6,0.426259,-70.943671
Leu-Yo,51,1,2024-03-04T07:18:47.193Z,male_vraiment_flat_178.wav,1,False,9520,52,masculin,0,0.000000,-112.052653
Leu-Yo,51,1,2024-03-04T07:18:47.193Z,male_vraiment_flat_178.wav,1,False,9520,52,masculin,1,0.071043,-21.378049
Leu-Yo,51,1,2024-03-04T07:18:47.193Z,male_vraiment_flat_178.wav,1,False,9520,52,masculin,2,0.142086,71.395950
Leu-Yo,51,1,2024-03-04T07:18:47.193Z,male_vraiment_flat_178.wav,1,False,9520,52,masculin,3,0.213129,66.817796
Leu-Yo,51,1,2024-03-04T07:18:47.193Z,male_vraiment_flat_178.wav,1,False,9520,52,masculin,4,0.284172,25.203350
Leu-Yo,51,1,2024-03-04T07:18:47.193Z,male_vraiment_flat_178.wav,1,False,9520,52,masculin,5,0.355215,-37.010641
Leu-Yo,51,1,2024-03-04T07:18:47.193Z,male_vraiment_flat_178.wav,1,False,9520,52,masculin,6,0.426259,88.032365
Leu-Yo,52,1,2024-03-04T07:18:47.193Z,male_vraiment_flat_52.wav,0,True,4417,52,masculin,0,0.000000,-133.801400
Leu-Yo,52,1,2024-03-04T07:18:47.193Z,male_vraiment_flat_52.wav,0,True,4417,52,masculin,1,0.071043,34.189717
Leu-Yo,52,1,2024-03-04T07:18:47.193Z,male_vraiment_flat_52.wav,0,True,4417,52,masculin,2,0.142086,-145.714669
Leu-Yo,52,1,2024-03-04T07:18:47.193Z,male_vraiment_flat_52.wav,0,True,4417,52,masculin,3,0.213129,1.717896
Leu-Yo,52,1,2024-03-04T07:18:47.193Z,male_vraiment_flat_52.wav,0,True,4417,52,masculin,4,0.284172,99.036025
Leu-Yo,52,1,2024-03-04T07:18:47.193Z,male_vraiment_flat_52.wav,0,True,4417,52,masculin,5,0.355215,56.473042
Leu-Yo,52,1,2024-03-04T07:18:47.193Z,male_vraiment_flat_52.wav,0,True,4417,52,masculin,6,0.426259,113.578937
Leu-Yo,52,1,2024-03-04T07:18:47.193Z,male_vraiment_flat_21.wav,1,False,4417,52,masculin,0,0.000000,84.422922
Leu-Yo,52,1,2024-03-04T07:18:47.193Z,male_vraiment_flat_21.wav,1,False,4417,52,masculin,1,0.071043,34.734306
Leu-Yo,52,1,2024-03-04T07:18:47.193Z,male_vraiment_flat_21.wav,1,False,4417,52,masculin,2,0.142086,84.348012
Leu-Yo,52,1,2024-03-04T07:18:47.193Z,male_vraiment_flat_21.wav,1,False,4417,52,masculin,3,0.213129,-112.005491
Leu-Yo,52,1,2024-03-04T07:18:47.193Z,male_vraiment_flat_21.wav,1,False,4417,52,masculin,4,0.284172,147.407394
Leu-Yo,52,1,2024-03-04T07:18:47.193Z,male_vraiment_flat_21.wav,1,False,4417,52,masculin,5,0.355215,-6.622355
Leu-Yo,52,1,2024-03-04T07:18:47.193Z,male_vraiment_flat_21.wav,1,False,4417,52,masculin,6,0.426259,125.674103
Leu-Yo,53,1,2024-03-04T07:18:47.193Z,male_vraiment_flat_76.wav,0,False,1601,52,masculin,0,0.000000,-119.681125
Leu-Yo,53,1,2024-03-04T07:18:47.193Z,male_vraiment_flat_76.wav,0,False,1601,52,masculin,1,0.071043,66.441865
Leu-Yo,53,1,2024-03-04T07:18:47.193Z,male_vraiment_flat_76.wav,0,False,1601,52,masculin,2,0.142086,-95.265303
Leu-Yo,53,1,2024-03-04T07:18:47.193Z,male_vraiment_flat_76.wav,0,False,1601,52,masculin,3,0.213129,7.780656
Leu-Yo,53,1,2024-03-04T07:18:47.193Z,male_vraiment_flat_76.wav,0,False,1601,52,masculin,4,0.284172,-90.368576
Leu-Yo,53,1,2024-03-04T07:18:47.193Z,male_vraiment_flat_76.wav,0,False,1601,52,masculin,5,0.355215,-64.528472
Leu-Yo,53,1,2024-03-04T07:18:47.193Z,male_vraiment_flat_76.wav,0,False,1601,52,masculin,6,0.426259,-137.293439
Leu-Yo,53,1,2024-03-04T07:18:47.193Z,male_vraiment_flat_47.wav,1,True,1601,52,masculin,0,0.000000,11.243959
Leu-Yo,53,1,2024-03-04T07:18:47.193Z,male_vraiment_flat_47.wav,1,True,1601,52,masculin,1,0.071043,-131.885563
Leu-Yo,53,1,2024-03-04T07:18:47.193Z,male_vraiment_flat_47.wav,1,True,1601,52,masculin,2,0.142086,22.720944
Leu-Yo,53,1,2024-03-04T07:18:47.193Z,male_vraiment_flat_47.wav,1,True,1601,52,masculin,3,0.213129,-98.981706
Leu-Yo,53,1,2024-03-04T07:18:47.193Z,male_vraiment_flat_47.wav,1,True,1601,52,masculin,4,0.284172,-117.392555
Leu-Yo,53,1,2024-03-04T07:18:47.193Z,male_vraiment_flat_47.wav,1,True,1601,52,masculin,5,0.355215,-7.362816
Leu-Yo,53,1,2024-03-04T07:18:47.193Z,male_vraiment_flat_47.wav,1,True,1601,52,masculin,6,0.426259,149.963589
Leu-Yo,54,1,2024-03-04T07:18:47.193Z,male_vraiment_flat_190.wav,0,True,977,52,masculin,0,0.000000,-135.472764
Leu-Yo,54,1,2024-03-04T07:18:47.193Z,male_vraiment_flat_190.wav,0,True,977,52,masculin,1,0.071043,-16.311165
Leu-Yo,54,1,2024-03-04T07:18:47.193Z,male_vraiment_flat_190.wav,0,True,977,52,masculin,2,0.142086,-108.166759
Leu-Yo,54,1,2024-03-04T07:18:47.193Z,male_vraiment_flat_190.wav,0,True,977,52,masculin,3,0.213129,-73.778410
Leu-Yo,54,1,2024-03-04T07:18:47.193Z,male_vraiment_flat_190.wav,0,True,977,52,masculin,4,0.284172,-109.839915
Leu-Yo,54,1,2024-03-04T07:18:47.193Z,male_vraiment_flat_190.wav,0,True,977,52,masculin,5,0.355215,2.895785
Leu-Yo,54,1,2024-03-04T07:18:47.193Z,male_vraiment_flat_190.wav,0,True,977,52,masculin,6,0.426259,14.515822
Leu-Yo,54,1,2024-03-04T07:18:47.193Z,male_vraiment_flat_89.wav,1,False,977,52,masculin,0,0.000000,109.966045
Leu-Yo,54,1,2024-03-04T07:18:47.193Z,male_vraiment_flat_89.wav,1,False,977,52,masculin,1,0.071043,3.952874
Leu-Yo,54,1,2024-03-04T07:18:47.193Z,male_vraiment_flat_89.wav,1,False,977,52,masculin,2,0.142086,14.687736
Leu-Yo,54,1,2024-03-04T07:18:47.193Z,male_vraiment_flat_89.wav,1,False,977,52,masculin,3,0.213129,-59.041416
Leu-Yo,54,1,2024-03-04T07:18:47.193Z,male_vraiment_flat_89.wav,1,False,977,52,masculin,4,0.284172,-42.151762
Leu-Yo,54,1,2024-03-04T07:18:47.193Z,male_vraiment_flat_89.wav,1,False,977,52,masculin,5,0.355215,-148.779325
Leu-Yo,54,1,2024-03-04T07:18:47.193Z,male_vraiment_flat_89.wav,1,False,977,52,masculin,6,0.426259,-61.315288
Leu-Yo,55,1,2024-03-04T07:18:47.193Z,male_vraiment_flat_110.wav,0,True,1290,52,masculin,0,0.000000,-78.850505
Leu-Yo,55,1,2024-03-04T07:18:47.193Z,male_vraiment_flat_110.wav,0,True,1290,52,masculin,1,0.071043,-96.953533
Leu-Yo,55,1,2024-03-04T07:18:47.193Z,male_vraiment_flat_110.wav,0,True,1290,52,masculin,2,0.142086,-38.365791
Leu-Yo,55,1,2024-03-04T07:18:47.193Z,male_vraiment_flat_110.wav,0,True,1290,52,masculin,3,0.213129,77.506607
Leu-Yo,55,1,2024-03-04T07:18:47.193Z,male_vraiment_flat_110.wav,0,True,1290,52,masculin,4,0.284172,-64.506238
Leu-Yo,55,1,2024-03-04T07:18:47.193Z,male_vraiment_flat_110.wav,0,True,1290,52,masculin,5,0.355215,15.353748
Leu-Yo,55,1,2024-03-04T07:18:47.193Z,male_vraiment_flat_110.wav,0,True,1290,52,masculin,6,0.426259,121.287299
Leu-Yo,55,1,2024-03-04T07:18:47.193Z,male_vraiment_flat_146.wav,1,False,1290,52,masculin,0,0.000000,92.610651
Leu-Yo,55,1,2024-03-04T07:18:47.193Z,male_vraiment_flat_146.wav,1,False,1290,52,masculin,1,0.071043,40.250954
Leu-Yo,55,1,2024-03-04T07:18:47.193Z,male_vraiment_flat_146.wav,1,False,1290,52,masculin,2,0.142086,99.988333
Leu-Yo,55,1,2024-03-04T07:18:47.193Z,male_vraiment_flat_146.wav,1,False,1290,52,masculin,3,0.213129,115.543405
Leu-Yo,55,1,2024-03-04T07:18:47.193Z,male_vraiment_flat_146.wav,1,False,1290,52,masculin,4,0.284172,-3.607960
Leu-Yo,55,1,2024-03-04T07:18:47.193Z,male_vraiment_flat_146.wav,1,False,1290,52,masculin,5,0.355215,-91.494225
Leu-Yo,55,1,2024-03-04T07:18:47.193Z,male_vraiment_flat_146.wav,1,False,1290,52,masculin,6,0.426259,-109.708123
Leu-Yo,56,1,2024-03-04T07:18:47.193Z,male_vraiment_flat_106.wav,0,True,3147,52,masculin,0,0.000000,13.442505
Leu-Yo,56,1,2024-03-04T07:18:47.193Z,male_vraiment_flat_106.wav,0,True,3147,52,masculin,1,0.071043,67.880832
Leu-Yo,56,1,2024-03-04T07:18:47.193Z,male_vraiment_flat_106.wav,0,True,3147,52,masculin,2,0.142086,105.927648
Leu-Yo,56,1,2024-03-04T07:18:47.193Z,male_vraiment_flat_106.wav,0,True,3147,52,masculin,3,0.213129,65.041696
Leu-Yo,56,1,2024-03-04T07:18:47.193Z,male_vraiment_flat_106.wav,0,True,3147,52,masculin,4,0.284172,-59.466654
Leu-Yo,56,1,2024-03-04T07:18:47.193Z,male_vraiment_flat_106.wav,0,True,3147,52,masculin,5,0.355215,55.710963
Leu-Yo,56,1,2024-03-04T07:18:47.193Z,male_vraiment_flat_106.wav,0,True,3147,52,masculin,6,0.426259,127.964857
Leu-Yo,56,1,2024-03-04T07:18:47.193Z,male_vraiment_flat_156.wav,1,False,3147,52,masculin,0,0.000000,62.995907
Leu-Yo,56,1,2024-03-04T07:18:47.193Z,male_vraiment_flat_156.wav,1,False,3147,52,masculin,1,0.071043,-119.801161
Leu-Yo,56,1,2024-03-04T07:18:47.193Z,male_vraiment_flat_156.wav,1,False,3147,52,masculin,2,0.142086,-125.261471
Leu-Yo,56,1,2024-03-04T07:18:47.193Z,male_vraiment_flat_156.wav,1,False,3147,52,masculin,3,0.213129,110.918732
Leu-Yo,56,1,2024-03-04T07:18:47.193Z,male_vraiment_flat_156.wav,1,False,3147,52,masculin,4,0.284172,-27.635219
Leu-Yo,56,1,2024-03-04T07:18:47.193Z,male_vraiment_flat_156.wav,1,False,3147,52,masculin,5,0.355215,57.926930
Leu-Yo,56,1,2024-03-04T07:18:47.193Z,male_vraiment_flat_156.wav,1,False,3147,52,masculin,6,0.426259,-85.703842
Leu-Yo,57,1,2024-03-04T07:18:47.193Z,male_vraiment_flat_57.wav,0,True,1587,52,masculin,0,0.000000,-38.971396
Leu-Yo,57,1,2024-03-04T07:18:47.193Z,male_vraiment_flat_57.wav,0,True,1587,52,masculin,1,0.071043,127.210639
Leu-Yo,57,1,2024-03-04T07:18:47.193Z,male_vraiment_flat_57.wav,0,True,1587,52,masculin,2,0.142086,-100.465383
Leu-Yo,57,1,2024-03-04T07:18:47.193Z,male_vraiment_flat_57.wav,0,True,1587,52,masculin,3,0.213129,-139.526819
Leu-Yo,57,1,2024-03-04T07:18:47.193Z,male_vraiment_flat_57.wav,0,True,1587,52,masculin,4,0.284172,-149.467980
Leu-Yo,57,1,2024-03-04T07:18:47.193Z,male_vraiment_flat_57.wav,0,True,1587,52,masculin,5,0.355215,-50.432071
Leu-Yo,57,1,2024-03-04T07:18:47.193Z,male_vraiment_flat_57.wav,0,True,1587,52,masculin,6,0.426259,15.305878
Leu-Yo,57,1,2024-03-04T07:18:47.193Z,male_vraiment_flat_37.wav,1,False,1587,52,masculin,0,0.000000,-50.449081
Leu-Yo,57,1,2024-03-04T07:18:47.193Z,male_vraiment_flat_37.wav,1,False,1587,52,masculin,1,0.071043,28.423389
Leu-Yo,57,1,2024-03-04T07:18:47.193Z,male_vraiment_flat_37.wav,1,False,1587,52,masculin,2,0.142086,-105.344692
Leu-Yo,57,1,2024-03-04T07:18:47.193Z,male_vraiment_flat_37.wav,1,False,1587,52,masculin,3,0.213129,-99.811505
Leu-Yo,57,1,2024-03-04T07:18:47.193Z,male_vraiment_flat_37.wav,1,False,1587,52,masculin,4,0.284172,142.698740
Leu-Yo,57,1,2024-03-04T07:18:47.193Z,male_vraiment_flat_37.wav,1,False,1587,52,masculin,5,0.355215,-90.971946
Leu-Yo,57,1,2024-03-04T07:18:47.193Z,male_vraiment_flat_37.wav,1,False,1587,52,masculin,6,0.426259,19.642948
Leu-Yo,58,1,2024-03-04T07:18:47.193Z,male_vraiment_flat_83.wav,0,False,1067,52,masculin,0,0.000000,-23.907946
Leu-Yo,58,1,2024-03-04T07:18:47.193Z,male_vraiment_flat_83.wav,0,False,1067,52,masculin,1,0.071043,-0.791729
Leu-Yo,58,1,2024-03-04T07:18:47.193Z,male_vraiment_flat_83.wav,0,False,1067,52,masculin,2,0.142086,23.610634
Leu-Yo,58,1,2024-03-04T07:18:47.193Z,male_vraiment_flat_83.wav,0,False,1067,52,masculin,3,0.213129,-35.411923
Leu-Yo,58,1,2024-03-04T07:18:47.193Z,male_vraiment_flat_83.wav,0,False,1067,52,masculin,4,0.284172,101.109402
Leu-Yo,58,1,2024-03-04T07:18:47.193Z,male_vraiment_flat_83.wav,0,False,1067,52,masculin,5,0.355215,-51.929212
Leu-Yo,58,1,2024-03-04T07:18:47.193Z,male_vraiment_flat_83.wav,0,False,1067,52,masculin,6,0.426259,-104.958378
Leu-Yo,58,1,2024-03-04T07:18:47.193Z,male_vraiment_flat_20.wav,1,True,1067,52,masculin,0,0.000000,-58.370476
Leu-Yo,58,1,2024-03-04T07:18:47.193Z,male_vraiment_flat_20.wav,1,True,1067,52,masculin,1,0.071043,112.073529
Leu-Yo,58,1,2024-03-04T07:18:47.193Z,male_vraiment_flat_20.wav,1,True,1067,52,masculin,2,0.142086,29.472628
Leu-Yo,58,1,2024-03-04T07:18:47.193Z,male_vraiment_flat_20.wav,1,True,1067,52,masculin,3,0.213129,-22.374222
Leu-Yo,58,1,2024-03-04T07:18:47.193Z,male_vraiment_flat_20.wav,1,True,1067,52,masculin,4,0.284172,-146.515998
Leu-Yo,58,1,2024-03-04T07:18:47.193Z,male_vraiment_flat_20.wav,1,True,1067,52,masculin,5,0.355215,47.280720
Leu-Yo,58,1,2024-03-04T07:18:47.193Z,male_vraiment_flat_20.wav,1,True,1067,52,masculin,6,0.426259,140.553925
Leu-Yo,59,1,2024-03-04T07:18:47.193Z,male_vraiment_flat_95.wav,0,False,668,52,masculin,0,0.000000,144.813706
Leu-Yo,59,1,2024-03-04T07:18:47.193Z,male_vraiment_flat_95.wav,0,False,668,52,masculin,1,0.071043,36.420023
Leu-Yo,59,1,2024-03-04T07:18:47.193Z,male_vraiment_flat_95.wav,0,False,668,52,masculin,2,0.142086,-15.581887
Leu-Yo,59,1,2024-03-04T07:18:47.193Z,male_vraiment_flat_95.wav,0,False,668,52,masculin,3,0.213129,-108.080315
Leu-Yo,59,1,2024-03-04T07:18:47.193Z,male_vraiment_flat_95.wav,0,False,668,52,masculin,4,0.284172,44.827040
Leu-Yo,59,1,2024-03-04T07:18:47.193Z,male_vraiment_flat_95.wav,0,False,668,52,masculin,5,0.355215,-140.857646
Leu-Yo,59,1,2024-03-04T07:18:47.193Z,male_vraiment_flat_95.wav,0,False,668,52,masculin,6,0.426259,-19.601185
Leu-Yo,59,1,2024-03-04T07:18:47.193Z,male_vraiment_flat_189.wav,1,True,668,52,masculin,0,0.000000,53.448621
Leu-Yo,59,1,2024-03-04T07:18:47.193Z,male_vraiment_flat_189.wav,1,True,668,52,masculin,1,0.071043,82.292801
Leu-Yo,59,1,2024-03-04T07:18:47.193Z,male_vraiment_flat_189.wav,1,True,668,52,masculin,2,0.142086,-89.509706
Leu-Yo,59,1,2024-03-04T07:18:47.193Z,male_vraiment_flat_189.wav,1,True,668,52,masculin,3,0.213129,61.203077
Leu-Yo,59,1,2024-03-04T07:18:47.193Z,male_vraiment_flat_189.wav,1,True,668,52,masculin,4,0.284172,-64.080431
Leu-Yo,59,1,2024-03-04T07:18:47.193Z,male_vraiment_flat_189.wav,1,True,668,52,masculin,5,0.355215,71.408242
Leu-Yo,59,1,2024-03-04T07:18:47.193Z,male_vraiment_flat_189.wav,1,True,668,52,masculin,6,0.426259,-96.299976
Leu-Yo,60,1,2024-03-04T07:18:47.193Z,male_vraiment_flat_28.wav,0,True,1376,52,masculin,0,0.000000,82.321174
Leu-Yo,60,1,2024-03-04T07:18:47.193Z,male_vraiment_flat_28.wav,0,True,1376,52,masculin,1,0.071043,-139.171806
Leu-Yo,60,1,2024-03-04T07:18:47.193Z,male_vraiment_flat_28.wav,0,True,1376,52,masculin,2,0.142086,-25.451767
Leu-Yo,60,1,2024-03-04T07:18:47.193Z,male_vraiment_flat_28.wav,0,True,1376,52,masculin,3,0.213129,-113.179723
Leu-Yo,60,1,2024-03-04T07:18:47.193Z,male_vraiment_flat_28.wav,0,True,1376,52,masculin,4,0.284172,-97.955774
Leu-Yo,60,1,2024-03-04T07:18:47.193Z,male_vraiment_flat_28.wav,0,True,1376,52,masculin,5,0.355215,43.444463
Leu-Yo,60,1,2024-03-04T07:18:47.193Z,male_vraiment_flat_28.wav,0,True,1376,52,masculin,6,0.426259,-9.291608
Leu-Yo,60,1,2024-03-04T07:18:47.193Z,male_vraiment_flat_40.wav,1,False,1376,52,masculin,0,0.000000,14.191871
Leu-Yo,60,1,2024-03-04T07:18:47.193Z,male_vraiment_flat_40.wav,1,False,1376,52,masculin,1,0.071043,-146.480257
Leu-Yo,60,1,2024-03-04T07:18:47.193Z,male_vraiment_flat_40.wav,1,False,1376,52,masculin,2,0.142086,53.736102
Leu-Yo,60,1,2024-03-04T07:18:47.193Z,male_vraiment_flat_40.wav,1,False,1376,52,masculin,3,0.213129,76.339598
Leu-Yo,60,1,2024-03-04T07:18:47.193Z,male_vraiment_flat_40.wav,1,False,1376,52,masculin,4,0.284172,128.682971
Leu-Yo,60,1,2024-03-04T07:18:47.193Z,male_vraiment_flat_40.wav,1,False,1376,52,masculin,5,0.355215,-84.474700
Leu-Yo,60,1,2024-03-04T07:18:47.193Z,male_vraiment_flat_40.wav,1,False,1376,52,masculin,6,0.426259,41.341932
Leu-Yo,61,1,2024-03-04T07:18:47.193Z,male_vraiment_flat_157.wav,0,False,1545,52,masculin,0,0.000000,20.473057
Leu-Yo,61,1,2024-03-04T07:18:47.193Z,male_vraiment_flat_157.wav,0,False,1545,52,masculin,1,0.071043,-103.427341
Leu-Yo,61,1,2024-03-04T07:18:47.193Z,male_vraiment_flat_157.wav,0,False,1545,52,masculin,2,0.142086,-58.670290
Leu-Yo,61,1,2024-03-04T07:18:47.193Z,male_vraiment_flat_157.wav,0,False,1545,52,masculin,3,0.213129,-88.181786
Leu-Yo,61,1,2024-03-04T07:18:47.193Z,male_vraiment_flat_157.wav,0,False,1545,52,masculin,4,0.284172,-145.892431
Leu-Yo,61,1,2024-03-04T07:18:47.193Z,male_vraiment_flat_157.wav,0,False,1545,52,masculin,5,0.355215,-121.197130
Leu-Yo,61,1,2024-03-04T07:18:47.193Z,male_vraiment_flat_157.wav,0,False,1545,52,masculin,6,0.426259,3.215116
Leu-Yo,61,1,2024-03-04T07:18:47.193Z,male_vraiment_flat_53.wav,1,True,1545,52,masculin,0,0.000000,12.794375
Leu-Yo,61,1,2024-03-04T07:18:47.193Z,male_vraiment_flat_53.wav,1,True,1545,52,masculin,1,0.071043,72.488609
Leu-Yo,61,1,2024-03-04T07:18:47.193Z,male_vraiment_flat_53.wav,1,True,1545,52,masculin,2,0.142086,82.753367
Leu-Yo,61,1,2024-03-04T07:18:47.193Z,male_vraiment_flat_53.wav,1,True,1545,52,masculin,3,0.213129,-11.724600
Leu-Yo,61,1,2024-03-04T07:18:47.193Z,male_vraiment_flat_53.wav,1,True,1545,52,masculin,4,0.284172,8.499299
Leu-Yo,61,1,2024-03-04T07:18:47.193Z,male_vraiment_flat_53.wav,1,True,1545,52,masculin,5,0.355215,84.468722
Leu-Yo,61,1,2024-03-04T07:18:47.193Z,male_vraiment_flat_53.wav,1,True,1545,52,masculin,6,0.426259,-88.580062
Leu-Yo,62,1,2024-03-04T07:18:47.193Z,male_vraiment_flat_132.wav,0,True,4246,52,masculin,0,0.000000,-95.735908
Leu-Yo,62,1,2024-03-04T07:18:47.193Z,male_vraiment_flat_132.wav,0,True,4246,52,masculin,1,0.071043,84.596174
Leu-Yo,62,1,2024-03-04T07:18:47.193Z,male_vraiment_flat_132.wav,0,True,4246,52,masculin,2,0.142086,30.815879
Leu-Yo,62,1,2024-03-04T07:18:47.193Z,male_vraiment_flat_132.wav,0,True,4246,52,masculin,3,0.213129,80.998062
Leu-Yo,62,1,2024-03-04T07:18:47.193Z,male_vraiment_flat_132.wav,0,True,4246,52,masculin,4,0.284172,4.635713
Leu-Yo,62,1,2024-03-04T07:18:47.193Z,male_vraiment_flat_132.wav,0,True,4246,52,masculin,5,0.355215,-66.322755
Leu-Yo,62,1,2024-03-04T07:18:47.193Z,male_vraiment_flat_132.wav,0,True,4246,52,masculin,6,0.426259,13.571979
Leu-Yo,62,1,2024-03-04T07:18:47.193Z,male_vraiment_flat_183.wav,1,False,4246,52,masculin,0,0.000000,102.527130
Leu-Yo,62,1,2024-03-04T07:18:47.193Z,male_vraiment_flat_183.wav,1,False,4246,52,masculin,1,0.071043,114.037020
Leu-Yo,62,1,2024-03-04T07:18:47.193Z,male_vraiment_flat_183.wav,1,False,4246,52,masculin,2,0.142086,-45.723055
Leu-Yo,62,1,2024-03-04T07:18:47.193Z,male_vraiment_flat_183.wav,1,False,4246,52,masculin,3,0.213129,-109.210749
Leu-Yo,62,1,2024-03-04T07:18:47.193Z,male_vraiment_flat_183.wav,1,False,4246,52,masculin,4,0.284172,-29.266312
Leu-Yo,62,1,2024-03-04T07:18:47.193Z,male_vraiment_flat_183.wav,1,False,4246,52,masculin,5,0.355215,-77.798514
Leu-Yo,62,1,2024-03-04T07:18:47.193Z,male_vraiment_flat_183.wav,1,False,4246,52,masculin,6,0.426259,-133.179439
Leu-Yo,63,1,2024-03-04T07:18:47.193Z,male_vraiment_flat_41.wav,0,True,4942,52,masculin,0,0.000000,-40.071689
Leu-Yo,63,1,2024-03-04T07:18:47.193Z,male_vraiment_flat_41.wav,0,True,4942,52,masculin,1,0.071043,-31.963638
Leu-Yo,63,1,2024-03-04T07:18:47.193Z,male_vraiment_flat_41.wav,0,True,4942,52,masculin,2,0.142086,-69.463296
Leu-Yo,63,1,2024-03-04T07:18:47.193Z,male_vraiment_flat_41.wav,0,True,4942,52,masculin,3,0.213129,-118.841278
Leu-Yo,63,1,2024-03-04T07:18:47.193Z,male_vraiment_flat_41.wav,0,True,4942,52,masculin,4,0.284172,80.615651
Leu-Yo,63,1,2024-03-04T07:18:47.193Z,male_vraiment_flat_41.wav,0,True,4942,52,masculin,5,0.355215,-132.443518
Leu-Yo,63,1,2024-03-04T07:18:47.193Z,male_vraiment_flat_41.wav,0,True,4942,52,masculin,6,0.426259,21.803113
Leu-Yo,63,1,2024-03-04T07:18:47.193Z,male_vraiment_flat_85.wav,1,False,4942,52,masculin,0,0.000000,16.220058
Leu-Yo,63,1,2024-03-04T07:18:47.193Z,male_vraiment_flat_85.wav,1,False,4942,52,masculin,1,0.071043,97.172848
Leu-Yo,63,1,2024-03-04T07:18:47.193Z,male_vraiment_flat_85.wav,1,False,4942,52,masculin,2,0.142086,121.919735
Leu-Yo,63,1,2024-03-04T07:18:47.193Z,male_vraiment_flat_85.wav,1,False,4942,52,masculin,3,0.213129,69.049273
Leu-Yo,63,1,2024-03-04T07:18:47.193Z,male_vraiment_flat_85.wav,1,False,4942,52,masculin,4,0.284172,124.256579
Leu-Yo,63,1,2024-03-04T07:18:47.193Z,male_vraiment_flat_85.wav,1,False,4942,52,masculin,5,0.355215,30.981006
Leu-Yo,63,1,2024-03-04T07:18:47.193Z,male_vraiment_flat_85.wav,1,False,4942,52,masculin,6,0.426259,-67.410158
Leu-Yo,64,1,2024-03-04T07:18:47.193Z,male_vraiment_flat_162.wav,0,False,1395,52,masculin,0,0.000000,-28.080103
Leu-Yo,64,1,2024-03-04T07:18:47.193Z,male_vraiment_flat_162.wav,0,False,1395,52,masculin,1,0.071043,-58.839442
Leu-Yo,64,1,2024-03-04T07:18:47.193Z,male_vraiment_flat_162.wav,0,False,1395,52,masculin,2,0.142086,8.883261
Leu-Yo,64,1,2024-03-04T07:18:47.193Z,male_vraiment_flat_162.wav,0,False,1395,52,masculin,3,0.213129,109.746189
Leu-Yo,64,1,2024-03-04T07:18:47.193Z,male_vraiment_flat_162.wav,0,False,1395,52,masculin,4,0.284172,134.765505
Leu-Yo,64,1,2024-03-04T07:18:47.193Z,male_vraiment_flat_162.wav,0,False,1395,52,masculin,5,0.355215,-8.935646
Leu-Yo,64,1,2024-03-04T07:18:47.193Z,male_vraiment_flat_162.wav,0,False,1395,52,masculin,6,0.426259,114.162759
Leu-Yo,64,1,2024-03-04T07:18:47.193Z,male_vraiment_flat_193.wav,1,True,1395,52,masculin,0,0.000000,-104.498046
Leu-Yo,64,1,2024-03-04T07:18:47.193Z,male_vraiment_flat_193.wav,1,True,1395,52,masculin,1,0.071043,27.454942
Leu-Yo,64,1,2024-03-04T07:18:47.193Z,male_vraiment_flat_193.wav,1,True,1395,52,masculin,2,0.142086,-81.084240
Leu-Yo,64,1,2024-03-04T07:18:47.193Z,male_vraiment_flat_193.wav,1,True,1395,52,masculin,3,0.213129,-66.105426
Leu-Yo,64,1,2024-03-04T07:18:47.193Z,male_vraiment_flat_193.wav,1,True,1395,52,masculin,4,0.284172,-18.843418
Leu-Yo,64,1,2024-03-04T07:18:47.193Z,male_vraiment_flat_193.wav,1,True,1395,52,masculin,5,0.355215,59.447118
Leu-Yo,64,1,2024-03-04T07:18:47.193Z,male_vraiment_flat_193.wav,1,True,1395,52,masculin,6,0.426259,86.357299
Leu-Yo,65,1,2024-03-04T07:18:47.193Z,male_vraiment_flat_155.wav,0,False,2867,52,masculin,0,0.000000,-140.284917
Leu-Yo,65,1,2024-03-04T07:18:47.193Z,male_vraiment_flat_155.wav,0,False,2867,52,masculin,1,0.071043,56.043903
Leu-Yo,65,1,2024-03-04T07:18:47.193Z,male_vraiment_flat_155.wav,0,False,2867,52,masculin,2,0.142086,-2.142699
Leu-Yo,65,1,2024-03-04T07:18:47.193Z,male_vraiment_flat_155.wav,0,False,2867,52,masculin,3,0.213129,-41.999388
