subj,trial,block,date,stim,stim_order,response,rt,age,sex,param_index,segment_time,pitch
jeanmil,0,0,2024-03-03T15:50:04.119Z,male_vraiment_flat_127.wav,0,False,1732,58,h,0,0.000000,143.598511
jeanmil,0,0,2024-03-03T15:50:04.119Z,male_vraiment_flat_127.wav,0,False,1732,58,h,1,0.071043,23.645136
jeanmil,0,0,2024-03-03T15:50:04.119Z,male_vraiment_flat_127.wav,0,False,1732,58,h,2,0.142086,-118.740497
jeanmil,0,0,2024-03-03T15:50:04.119Z,male_vraiment_flat_127.wav,0,False,1732,58,h,3,0.213129,-109.046436
jeanmil,0,0,2024-03-03T15:50:04.119Z,male_vraiment_flat_127.wav,0,False,1732,58,h,4,0.284172,66.022521
jeanmil,0,0,2024-03-03T15:50:04.119Z,male_vraiment_flat_127.wav,0,False,1732,58,h,5,0.355215,-13.059175
jeanmil,0,0,2024-03-03T15:50:04.119Z,male_vraiment_flat_127.wav,0,False,1732,58,h,6,0.426259,22.700660
jeanmil,0,0,2024-03-03T15:50:04.119Z,male_vraiment_flat_160.wav,1,True,1732,58,h,0,0.000000,21.342691
jeanmil,0,0,2024-03-03T15:50:04.119Z,male_vraiment_flat_160.wav,1,True,1732,58,h,1,0.071043,-76.780347
jeanmil,0,0,2024-03-03T15:50:04.119Z,male_vraiment_flat_160.wav,1,True,1732,58,h,2,0.142086,-127.843887
jeanmil,0,0,2024-03-03T15:50:04.119Z,male_vraiment_flat_160.wav,1,True,1732,58,h,3,0.213129,-126.126744
jeanmil,0,0,2024-03-03T15:50:04.119Z,male_vraiment_flat_160.wav,1,True,1732,58,h,4,0.284172,-33.722090
jeanmil,0,0,2024-03-03T15:50:04.119Z,male_vraiment_flat_160.wav,1,True,1732,58,h,5,0.355215,18.600024
jeanmil,0,0,2024-03-03T15:50:04.119Z,male_vraiment_flat_160.wav,1,True,1732,58,h,6,0.426259,-57.157597
jeanmil,1,0,2024-03-03T15:50:04.119Z,male_vraiment_flat_25.wav,0,False,2675,58,h,0,0.000000,-129.422108
jeanmil,1,0,2024-03-03T15:50:04.119Z,male_vraiment_flat_25.wav,0,False,2675,58,h,1,0.071043,-12.331663
jeanmil,1,0,2024-03-03T15:50:04.119Z,male_vraiment_flat_25.wav,0,False,2675,58,h,2,0.142086,-97.065740
jeanmil,1,0,2024-03-03T15:50:04.119Z,male_vraiment_flat_25.wav,0,False,2675,58,h,3,0.213129,-6.253122
jeanmil,1,0,2024-03-03T15:50:04.119Z,male_vraiment_flat_25.wav,0,False,2675,58,h,4,0.284172,31.933743
jeanmil,1,0,2024-03-03T15:50:04.119Z,male_vraiment_flat_25.wav,0,False,2675,58,h,5,0.355215,-58.415946
jeanmil,1,0,2024-03-03T15:50:04.119Z,male_vraiment_flat_25.wav,0,False,2675,58,h,6,0.426259,117.143598
jeanmil,1,0,2024-03-03T15:50:04.119Z,male_vraiment_flat_31.wav,1,True,2675,58,h,0,0.000000,-118.123136
jeanmil,1,0,2024-03-03T15:50:04.119Z,male_vraiment_flat_31.wav,1,True,2675,58,h,1,0.071043,-54.324615
jeanmil,1,0,2024-03-03T15:50:04.119Z,male_vraiment_flat_31.wav,1,True,2675,58,h,2,0.142086,-56.463303
jeanmil,1,0,2024-03-03T15:50:04.119Z,male_vraiment_flat_31.wav,1,True,2675,58,h,3,0.213129,65.563679
jeanmil,1,0,2024-03-03T15:50:04.119Z,male_vraiment_flat_31.wav,1,True,2675,58,h,4,0.284172,91.438424
jeanmil,1,0,2024-03-03T15:50:04.119Z,male_vraiment_flat_31.wav,1,True,2675,58,h,5,0.355215,-2.661707
jeanmil,1,0,2024-03-03T15:50:04.119Z,male_vraiment_flat_31.wav,1,True,2675,58,h,6,0.426259,-48.318391
jeanmil,2,0,2024-03-03T15:50:04.119Z,male_vraiment_flat_45.wav,0,False,2261,58,h,0,0.000000,-108.869549
jeanmil,2,0,2024-03-03T15:50:04.119Z,male_vraiment_flat_45.wav,0,False,2261,58,h,1,0.071043,-22.660114
jeanmil,2,0,2024-03-03T15:50:04.119Z,male_vraiment_flat_45.wav,0,False,2261,58,h,2,0.142086,-141.096375
jeanmil,2,0,2024-03-03T15:50:04.119Z,male_vraiment_flat_45.wav,0,False,2261,58,h,3,0.213129,-24.815065
jeanmil,2,0,2024-03-03T15:50:04.119Z,male_vraiment_flat_45.wav,0,False,2261,58,h,4,0.284172,102.804681
jeanmil,2,0,2024-03-03T15:50:04.119Z,male_vraiment_flat_45.wav,0,False,2261,58,h,5,0.355215,112.365201
jeanmil,2,0,2024-03-03T15:50:04.119Z,male_vraiment_flat_45.wav,0,False,2261,58,h,6,0.426259,95.196821
jeanmil,2,0,2024-03-03T15:50:04.119Z,male_vraiment_flat_152.wav,1,True,2261,58,h,0,0.000000,-121.409464
jeanmil,2,0,2024-03-03T15:50:04.119Z,male_vraiment_flat_152.wav,1,True,2261,58,h,1,0.071043,26.229918
jeanmil,2,0,2024-03-03T15:50:04.119Z,male_vraiment_flat_152.wav,1,True,2261,58,h,2,0.142086,46.107283
jeanmil,2,0,2024-03-03T15:50:04.119Z,male_vraiment_flat_152.wav,1,True,2261,58,h,3,0.213129,-122.378424
jeanmil,2,0,2024-03-03T15:50:04.119Z,male_vraiment_flat_152.wav,1,True,2261,58,h,4,0.284172,64.911076
jeanmil,2,0,2024-03-03T15:50:04.119Z,male_vraiment_flat_152.wav,1,True,2261,58,h,5,0.355215,129.744578
jeanmil,2,0,2024-03-03T15:50:04.119Z,male_vraiment_flat_152.wav,1,True,2261,58,h,6,0.426259,51.632825
jeanmil,3,0,2024-03-03T15:50:04.119Z,male_vraiment_flat_40.wav,0,True,2948,58,h,0,0.000000,14.191871
jeanmil,3,0,2024-03-03T15:50:04.119Z,male_vraiment_flat_40.wav,0,True,2948,58,h,1,0.071043,-146.480257
jeanmil,3,0,2024-03-03T15:50:04.119Z,male_vraiment_flat_40.wav,0,True,2948,58,h,2,0.142086,53.736102
jeanmil,3,0,2024-03-03T15:50:04.119Z,male_vraiment_flat_40.wav,0,True,2948,58,h,3,0.213129,76.339598
jeanmil,3,0,2024-03-03T15:50:04.119Z,male_vraiment_flat_40.wav,0,True,2948,58,h,4,0.284172,128.682971
jeanmil,3,0,2024-03-03T15:50:04.119Z,male_vraiment_flat_40.wav,0,True,2948,58,h,5,0.355215,-84.474700
jeanmil,3,0,2024-03-03T15:50:04.119Z,male_vraiment_flat_40.wav,0,True,2948,58,h,6,0.426259,41.341932
jeanmil,3,0,2024-03-03T15:50:04.119Z,male_vraiment_flat_60.wav,1,False,2948,58,h,0,0.000000,-89.296237
jeanmil,3,0,2024-03-03T15:50:04.119Z,male_vraiment_flat_60.wav,1,False,2948,58,h,1,0.071043,0.647875
jeanmil,3,0,2024-03-03T15:50:04.119Z,male_vraiment_flat_60.wav,1,False,2948,58,h,2,0.142086,-124.228045
jeanmil,3,0,2024-03-03T15:50:04.119Z,male_vraiment_flat_60.wav,1,False,2948,58,h,3,0.213129,-147.365900
jeanmil,3,0,2024-03-03T15:50:04.119Z,male_vraiment_flat_60.wav,1,False,2948,58,h,4,0.284172,-7.428030
jeanmil,3,0,2024-03-03T15:50:04.119Z,male_vraiment_flat_60.wav,1,False,2948,58,h,5,0.355215,-42.828577
jeanmil,3,0,2024-03-03T15:50:04.119Z,male_vraiment_flat_60.wav,1,False,2948,58,h,6,0.426259,-114.882786
jeanmil,4,0,2024-03-03T15:50:04.119Z,male_vraiment_flat_78.wav,0,False,2549,58,h,0,0.000000,80.055785
jeanmil,4,0,2024-03-03T15:50:04.119Z,male_vraiment_flat_78.wav,0,False,2549,58,h,1,0.071043,117.831593
jeanmil,4,0,2024-03-03T15:50:04.119Z,male_vraiment_flat_78.wav,0,False,2549,58,h,2,0.142086,-32.666549
jeanmil,4,0,2024-03-03T15:50:04.119Z,male_vraiment_flat_78.wav,0,False,2549,58,h,3,0.213129,67.905321
jeanmil,4,0,2024-03-03T15:50:04.119Z,male_vraiment_flat_78.wav,0,False,2549,58,h,4,0.284172,84.716683
jeanmil,4,0,2024-03-03T15:50:04.119Z,male_vraiment_flat_78.wav,0,False,2549,58,h,5,0.355215,30.832945
jeanmil,4,0,2024-03-03T15:50:04.119Z,male_vraiment_flat_78.wav,0,False,2549,58,h,6,0.426259,87.837740
jeanmil,4,0,2024-03-03T15:50:04.119Z,male_vraiment_flat_87.wav,1,True,2549,58,h,0,0.000000,123.541183
jeanmil,4,0,2024-03-03T15:50:04.119Z,male_vraiment_flat_87.wav,1,True,2549,58,h,1,0.071043,-79.641893
jeanmil,4,0,2024-03-03T15:50:04.119Z,male_vraiment_flat_87.wav,1,True,2549,58,h,2,0.142086,-129.036775
jeanmil,4,0,2024-03-03T15:50:04.119Z,male_vraiment_flat_87.wav,1,True,2549,58,h,3,0.213129,-12.372422
jeanmil,4,0,2024-03-03T15:50:04.119Z,male_vraiment_flat_87.wav,1,True,2549,58,h,4,0.284172,47.099802
jeanmil,4,0,2024-03-03T15:50:04.119Z,male_vraiment_flat_87.wav,1,True,2549,58,h,5,0.355215,133.796504
jeanmil,4,0,2024-03-03T15:50:04.119Z,male_vraiment_flat_87.wav,1,True,2549,58,h,6,0.426259,125.051187
jeanmil,5,0,2024-03-03T15:50:04.119Z,male_vraiment_flat_76.wav,0,False,1541,58,h,0,0.000000,-119.681125
jeanmil,5,0,2024-03-03T15:50:04.119Z,male_vraiment_flat_76.wav,0,False,1541,58,h,1,0.071043,66.441865
jeanmil,5,0,2024-03-03T15:50:04.119Z,male_vraiment_flat_76.wav,0,False,1541,58,h,2,0.142086,-95.265303
jeanmil,5,0,2024-03-03T15:50:04.119Z,male_vraiment_flat_76.wav,0,False,1541,58,h,3,0.213129,7.780656
jeanmil,5,0,2024-03-03T15:50:04.119Z,male_vraiment_flat_76.wav,0,False,1541,58,h,4,0.284172,-90.368576
jeanmil,5,0,2024-03-03T15:50:04.119Z,male_vraiment_flat_76.wav,0,False,1541,58,h,5,0.355215,-64.528472
jeanmil,5,0,2024-03-03T15:50:04.119Z,male_vraiment_flat_76.wav,0,False,1541,58,h,6,0.426259,-137.293439
jeanmil,5,0,2024-03-03T15:50:04.119Z,male_vraiment_flat_124.wav,1,True,1541,58,h,0,0.000000,-7.963711
jeanmil,5,0,2024-03-03T15:50:04.119Z,male_vraiment_flat_124.wav,1,True,1541,58,h,1,0.071043,-56.081883
jeanmil,5,0,2024-03-03T15:50:04.119Z,male_vraiment_flat_124.wav,1,True,1541,58,h,2,0.142086,-78.115299
jeanmil,5,0,2024-03-03T15:50:04.119Z,male_vraiment_flat_124.wav,1,True,1541,58,h,3,0.213129,-24.811935
jeanmil,5,0,2024-03-03T15:50:04.119Z,male_vraiment_flat_124.wav,1,True,1541,58,h,4,0.284172,-9.003272
jeanmil,5,0,2024-03-03T15:50:04.119Z,male_vraiment_flat_124.wav,1,True,1541,58,h,5,0.355215,13.712214
jeanmil,5,0,2024-03-03T15:50:04.119Z,male_vraiment_flat_124.wav,1,True,1541,58,h,6,0.426259,140.048390
jeanmil,6,0,2024-03-03T15:50:04.119Z,male_vraiment_flat_91.wav,0,True,1965,58,h,0,0.000000,58.982225
jeanmil,6,0,2024-03-03T15:50:04.119Z,male_vraiment_flat_91.wav,0,True,1965,58,h,1,0.071043,126.482844
jeanmil,6,0,2024-03-03T15:50:04.119Z,male_vraiment_flat_91.wav,0,True,1965,58,h,2,0.142086,-120.324305
jeanmil,6,0,2024-03-03T15:50:04.119Z,male_vraiment_flat_91.wav,0,True,1965,58,h,3,0.213129,54.493295
jeanmil,6,0,2024-03-03T15:50:04.119Z,male_vraiment_flat_91.wav,0,True,1965,58,h,4,0.284172,74.680181
jeanmil,6,0,2024-03-03T15:50:04.119Z,male_vraiment_flat_91.wav,0,True,1965,58,h,5,0.355215,99.124880
jeanmil,6,0,2024-03-03T15:50:04.119Z,male_vraiment_flat_91.wav,0,True,1965,58,h,6,0.426259,-32.505202
jeanmil,6,0,2024-03-03T15:50:04.119Z,male_vraiment_flat_129.wav,1,False,1965,58,h,0,0.000000,121.236122
jeanmil,6,0,2024-03-03T15:50:04.119Z,male_vraiment_flat_129.wav,1,False,1965,58,h,1,0.071043,8.396736
jeanmil,6,0,2024-03-03T15:50:04.119Z,male_vraiment_flat_129.wav,1,False,1965,58,h,2,0.142086,-17.691364
jeanmil,6,0,2024-03-03T15:50:04.119Z,male_vraiment_flat_129.wav,1,False,1965,58,h,3,0.213129,73.711335
jeanmil,6,0,2024-03-03T15:50:04.119Z,male_vraiment_flat_129.wav,1,False,1965,58,h,4,0.284172,-117.430618
jeanmil,6,0,2024-03-03T15:50:04.119Z,male_vraiment_flat_129.wav,1,False,1965,58,h,5,0.355215,-12.936057
jeanmil,6,0,2024-03-03T15:50:04.119Z,male_vraiment_flat_129.wav,1,False,1965,58,h,6,0.426259,-63.494285
jeanmil,7,0,2024-03-03T15:50:04.119Z,male_vraiment_flat_198.wav,0,False,1400,58,h,0,0.000000,-103.630506
jeanmil,7,0,2024-03-03T15:50:04.119Z,male_vraiment_flat_198.wav,0,False,1400,58,h,1,0.071043,-84.165473
jeanmil,7,0,2024-03-03T15:50:04.119Z,male_vraiment_flat_198.wav,0,False,1400,58,h,2,0.142086,-14.577431
jeanmil,7,0,2024-03-03T15:50:04.119Z,male_vraiment_flat_198.wav,0,False,1400,58,h,3,0.213129,28.146235
jeanmil,7,0,2024-03-03T15:50:04.119Z,male_vraiment_flat_198.wav,0,False,1400,58,h,4,0.284172,-80.575165
jeanmil,7,0,2024-03-03T15:50:04.119Z,male_vraiment_flat_198.wav,0,False,1400,58,h,5,0.355215,-32.118902
jeanmil,7,0,2024-03-03T15:50:04.119Z,male_vraiment_flat_198.wav,0,False,1400,58,h,6,0.426259,78.303148
jeanmil,7,0,2024-03-03T15:50:04.119Z,male_vraiment_flat_134.wav,1,True,1400,58,h,0,0.000000,85.320049
jeanmil,7,0,2024-03-03T15:50:04.119Z,male_vraiment_flat_134.wav,1,True,1400,58,h,1,0.071043,2.147850
jeanmil,7,0,2024-03-03T15:50:04.119Z,male_vraiment_flat_134.wav,1,True,1400,58,h,2,0.142086,140.355465
jeanmil,7,0,2024-03-03T15:50:04.119Z,male_vraiment_flat_134.wav,1,True,1400,58,h,3,0.213129,98.923070
jeanmil,7,0,2024-03-03T15:50:04.119Z,male_vraiment_flat_134.wav,1,True,1400,58,h,4,0.284172,20.388975
jeanmil,7,0,2024-03-03T15:50:04.119Z,male_vraiment_flat_134.wav,1,True,1400,58,h,5,0.355215,-4.239426
jeanmil,7,0,2024-03-03T15:50:04.119Z,male_vraiment_flat_134.wav,1,True,1400,58,h,6,0.426259,83.444299
jeanmil,8,0,2024-03-03T15:50:04.119Z,male_vraiment_flat_36.wav,0,True,1470,58,h,0,0.000000,-33.837960
jeanmil,8,0,2024-03-03T15:50:04.119Z,male_vraiment_flat_36.wav,0,True,1470,58,h,1,0.071043,102.134309
jeanmil,8,0,2024-03-03T15:50:04.119Z,male_vraiment_flat_36.wav,0,True,1470,58,h,2,0.142086,100.949665
jeanmil,8,0,2024-03-03T15:50:04.119Z,male_vraiment_flat_36.wav,0,True,1470,58,h,3,0.213129,77.352428
jeanmil,8,0,2024-03-03T15:50:04.119Z,male_vraiment_flat_36.wav,0,True,1470,58,h,4,0.284172,-1.995321
jeanmil,8,0,2024-03-03T15:50:04.119Z,male_vraiment_flat_36.wav,0,True,1470,58,h,5,0.355215,-13.382838
jeanmil,8,0,2024-03-03T15:50:04.119Z,male_vraiment_flat_36.wav,0,True,1470,58,h,6,0.426259,-42.807835
jeanmil,8,0,2024-03-03T15:50:04.119Z,male_vraiment_flat_49.wav,1,False,1470,58,h,0,0.000000,-83.600042
jeanmil,8,0,2024-03-03T15:50:04.119Z,male_vraiment_flat_49.wav,1,False,1470,58,h,1,0.071043,-14.728623
jeanmil,8,0,2024-03-03T15:50:04.119Z,male_vraiment_flat_49.wav,1,False,1470,58,h,2,0.142086,25.142138
jeanmil,8,0,2024-03-03T15:50:04.119Z,male_vraiment_flat_49.wav,1,False,1470,58,h,3,0.213129,135.875151
jeanmil,8,0,2024-03-03T15:50:04.119Z,male_vraiment_flat_49.wav,1,False,1470,58,h,4,0.284172,60.117986
jeanmil,8,0,2024-03-03T15:50:04.119Z,male_vraiment_flat_49.wav,1,False,1470,58,h,5,0.355215,-135.086661
jeanmil,8,0,2024-03-03T15:50:04.119Z,male_vraiment_flat_49.wav,1,False,1470,58,h,6,0.426259,-32.809615
jeanmil,9,0,2024-03-03T15:50:04.119Z,male_vraiment_flat_179.wav,0,True,1685,58,h,0,0.000000,31.793897
jeanmil,9,0,2024-03-03T15:50:04.119Z,male_vraiment_flat_179.wav,0,True,1685,58,h,1,0.071043,-7.766660
jeanmil,9,0,2024-03-03T15:50:04.119Z,male_vraiment_flat_179.wav,0,True,1685,58,h,2,0.142086,14.202215
jeanmil,9,0,2024-03-03T15:50:04.119Z,male_vraiment_flat_179.wav,0,True,1685,58,h,3,0.213129,-28.726082
jeanmil,9,0,2024-03-03T15:50:04.119Z,male_vraiment_flat_179.wav,0,True,1685,58,h,4,0.284172,-38.298342
jeanmil,9,0,2024-03-03T15:50:04.119Z,male_vraiment_flat_179.wav,0,True,1685,58,h,5,0.355215,97.025797
jeanmil,9,0,2024-03-03T15:50:04.119Z,male_vraiment_flat_179.wav,0,True,1685,58,h,6,0.426259,-148.112175
jeanmil,9,0,2024-03-03T15:50:04.119Z,male_vraiment_flat_84.wav,1,False,1685,58,h,0,0.000000,79.222174
jeanmil,9,0,2024-03-03T15:50:04.119Z,male_vraiment_flat_84.wav,1,False,1685,58,h,1,0.071043,61.816109
jeanmil,9,0,2024-03-03T15:50:04.119Z,male_vraiment_flat_84.wav,1,False,1685,58,h,2,0.142086,-111.712238
jeanmil,9,0,2024-03-03T15:50:04.119Z,male_vraiment_flat_84.wav,1,False,1685,58,h,3,0.213129,96.584947
jeanmil,9,0,2024-03-03T15:50:04.119Z,male_vraiment_flat_84.wav,1,False,1685,58,h,4,0.284172,-11.292098
jeanmil,9,0,2024-03-03T15:50:04.119Z,male_vraiment_flat_84.wav,1,False,1685,58,h,5,0.355215,57.720124
jeanmil,9,0,2024-03-03T15:50:04.119Z,male_vraiment_flat_84.wav,1,False,1685,58,h,6,0.426259,-122.021307
jeanmil,10,0,2024-03-03T15:50:04.119Z,male_vraiment_flat_94.wav,0,False,3705,58,h,0,0.000000,-0.652128
jeanmil,10,0,2024-03-03T15:50:04.119Z,male_vraiment_flat_94.wav,0,False,3705,58,h,1,0.071043,97.860897
jeanmil,10,0,2024-03-03T15:50:04.119Z,male_vraiment_flat_94.wav,0,False,3705,58,h,2,0.142086,48.932214
jeanmil,10,0,2024-03-03T15:50:04.119Z,male_vraiment_flat_94.wav,0,False,3705,58,h,3,0.213129,-23.097711
jeanmil,10,0,2024-03-03T15:50:04.119Z,male_vraiment_flat_94.wav,0,False,3705,58,h,4,0.284172,-47.481676
jeanmil,10,0,2024-03-03T15:50:04.119Z,male_vraiment_flat_94.wav,0,False,3705,58,h,5,0.355215,-120.450621
jeanmil,10,0,2024-03-03T15:50:04.119Z,male_vraiment_flat_94.wav,0,False,3705,58,h,6,0.426259,-116.887604
jeanmil,10,0,2024-03-03T15:50:04.119Z,male_vraiment_flat_186.wav,1,True,3705,58,h,0,0.000000,-146.338275
jeanmil,10,0,2024-03-03T15:50:04.119Z,male_vraiment_flat_186.wav,1,True,3705,58,h,1,0.071043,17.632346
jeanmil,10,0,2024-03-03T15:50:04.119Z,male_vraiment_flat_186.wav,1,True,3705,58,h,2,0.142086,135.683559
jeanmil,10,0,2024-03-03T15:50:04.119Z,male_vraiment_flat_186.wav,1,True,3705,58,h,3,0.213129,133.054558
jeanmil,10,0,2024-03-03T15:50:04.119Z,male_vraiment_flat_186.wav,1,True,3705,58,h,4,0.284172,-31.983178
jeanmil,10,0,2024-03-03T15:50:04.119Z,male_vraiment_flat_186.wav,1,True,3705,58,h,5,0.355215,-117.937109
jeanmil,10,0,2024-03-03T15:50:04.119Z,male_vraiment_flat_186.wav,1,True,3705,58,h,6,0.426259,-78.681829
jeanmil,11,0,2024-03-03T15:50:04.119Z,male_vraiment_flat_119.wav,0,True,1739,58,h,0,0.000000,-44.932226
jeanmil,11,0,2024-03-03T15:50:04.119Z,male_vraiment_flat_119.wav,0,True,1739,58,h,1,0.071043,12.460519
jeanmil,11,0,2024-03-03T15:50:04.119Z,male_vraiment_flat_119.wav,0,True,1739,58,h,2,0.142086,58.855712
jeanmil,11,0,2024-03-03T15:50:04.119Z,male_vraiment_flat_119.wav,0,True,1739,58,h,3,0.213129,26.967779
jeanmil,11,0,2024-03-03T15:50:04.119Z,male_vraiment_flat_119.wav,0,True,1739,58,h,4,0.284172,139.969902
jeanmil,11,0,2024-03-03T15:50:04.119Z,male_vraiment_flat_119.wav,0,True,1739,58,h,5,0.355215,49.325586
jeanmil,11,0,2024-03-03T15:50:04.119Z,male_vraiment_flat_119.wav,0,True,1739,58,h,6,0.426259,89.552624
jeanmil,11,0,2024-03-03T15:50:04.119Z,male_vraiment_flat_145.wav,1,False,1739,58,h,0,0.000000,-57.363512
jeanmil,11,0,2024-03-03T15:50:04.119Z,male_vraiment_flat_145.wav,1,False,1739,58,h,1,0.071043,98.212837
jeanmil,11,0,2024-03-03T15:50:04.119Z,male_vraiment_flat_145.wav,1,False,1739,58,h,2,0.142086,141.769894
jeanmil,11,0,2024-03-03T15:50:04.119Z,male_vraiment_flat_145.wav,1,False,1739,58,h,3,0.213129,137.732142
jeanmil,11,0,2024-03-03T15:50:04.119Z,male_vraiment_flat_145.wav,1,False,1739,58,h,4,0.284172,20.834317
jeanmil,11,0,2024-03-03T15:50:04.119Z,male_vraiment_flat_145.wav,1,False,1739,58,h,5,0.355215,-134.972350
jeanmil,11,0,2024-03-03T15:50:04.119Z,male_vraiment_flat_145.wav,1,False,1739,58,h,6,0.426259,-28.162434
jeanmil,12,0,2024-03-03T15:50:04.119Z,male_vraiment_flat_135.wav,0,True,2493,58,h,0,0.000000,69.664553
jeanmil,12,0,2024-03-03T15:50:04.119Z,male_vraiment_flat_135.wav,0,True,2493,58,h,1,0.071043,-40.692966
jeanmil,12,0,2024-03-03T15:50:04.119Z,male_vraiment_flat_135.wav,0,True,2493,58,h,2,0.142086,-94.283336
jeanmil,12,0,2024-03-03T15:50:04.119Z,male_vraiment_flat_135.wav,0,True,2493,58,h,3,0.213129,7.777910
jeanmil,12,0,2024-03-03T15:50:04.119Z,male_vraiment_flat_135.wav,0,True,2493,58,h,4,0.284172,26.713191
jeanmil,12,0,2024-03-03T15:50:04.119Z,male_vraiment_flat_135.wav,0,True,2493,58,h,5,0.355215,137.292776
jeanmil,12,0,2024-03-03T15:50:04.119Z,male_vraiment_flat_135.wav,0,True,2493,58,h,6,0.426259,-136.153804
jeanmil,12,0,2024-03-03T15:50:04.119Z,male_vraiment_flat_173.wav,1,False,2493,58,h,0,0.000000,-99.731768
jeanmil,12,0,2024-03-03T15:50:04.119Z,male_vraiment_flat_173.wav,1,False,2493,58,h,1,0.071043,-42.486722
jeanmil,12,0,2024-03-03T15:50:04.119Z,male_vraiment_flat_173.wav,1,False,2493,58,h,2,0.142086,49.610636
jeanmil,12,0,2024-03-03T15:50:04.119Z,male_vraiment_flat_173.wav,1,False,2493,58,h,3,0.213129,-115.961177
jeanmil,12,0,2024-03-03T15:50:04.119Z,male_vraiment_flat_173.wav,1,False,2493,58,h,4,0.284172,-68.693255
jeanmil,12,0,2024-03-03T15:50:04.119Z,male_vraiment_flat_173.wav,1,False,2493,58,h,5,0.355215,105.434903
jeanmil,12,0,2024-03-03T15:50:04.119Z,male_vraiment_flat_173.wav,1,False,2493,58,h,6,0.426259,5.248120
jeanmil,13,0,2024-03-03T15:50:04.119Z,male_vraiment_flat_138.wav,0,False,1468,58,h,0,0.000000,-29.536298
jeanmil,13,0,2024-03-03T15:50:04.119Z,male_vraiment_flat_138.wav,0,False,1468,58,h,1,0.071043,90.685935
jeanmil,13,0,2024-03-03T15:50:04.119Z,male_vraiment_flat_138.wav,0,False,1468,58,h,2,0.142086,-77.044346
jeanmil,13,0,2024-03-03T15:50:04.119Z,male_vraiment_flat_138.wav,0,False,1468,58,h,3,0.213129,-75.264885
jeanmil,13,0,2024-03-03T15:50:04.119Z,male_vraiment_flat_138.wav,0,False,1468,58,h,4,0.284172,-129.490236
jeanmil,13,0,2024-03-03T15:50:04.119Z,male_vraiment_flat_138.wav,0,False,1468,58,h,5,0.355215,-48.940612
jeanmil,13,0,2024-03-03T15:50:04.119Z,male_vraiment_flat_138.wav,0,False,1468,58,h,6,0.426259,-95.647001
jeanmil,13,0,2024-03-03T15:50:04.119Z,male_vraiment_flat_54.wav,1,True,1468,58,h,0,0.000000,117.470857
jeanmil,13,0,2024-03-03T15:50:04.119Z,male_vraiment_flat_54.wav,1,True,1468,58,h,1,0.071043,-78.886002
jeanmil,13,0,2024-03-03T15:50:04.119Z,male_vraiment_flat_54.wav,1,True,1468,58,h,2,0.142086,14.587652
jeanmil,13,0,2024-03-03T15:50:04.119Z,male_vraiment_flat_54.wav,1,True,1468,58,h,3,0.213129,69.368451
jeanmil,13,0,2024-03-03T15:50:04.119Z,male_vraiment_flat_54.wav,1,True,1468,58,h,4,0.284172,64.657305
jeanmil,13,0,2024-03-03T15:50:04.119Z,male_vraiment_flat_54.wav,1,True,1468,58,h,5,0.355215,7.845227
jeanmil,13,0,2024-03-03T15:50:04.119Z,male_vraiment_flat_54.wav,1,True,1468,58,h,6,0.426259,-11.003085
jeanmil,14,0,2024-03-03T15:50:04.119Z,male_vraiment_flat_146.wav,0,False,2637,58,h,0,0.000000,92.610651
jeanmil,14,0,2024-03-03T15:50:04.119Z,male_vraiment_flat_146.wav,0,False,2637,58,h,1,0.071043,40.250954
jeanmil,14,0,2024-03-03T15:50:04.119Z,male_vraiment_flat_146.wav,0,False,2637,58,h,2,0.142086,99.988333
jeanmil,14,0,2024-03-03T15:50:04.119Z,male_vraiment_flat_146.wav,0,False,2637,58,h,3,0.213129,115.543405
jeanmil,14,0,2024-03-03T15:50:04.119Z,male_vraiment_flat_146.wav,0,False,2637,58,h,4,0.284172,-3.607960
jeanmil,14,0,2024-03-03T15:50:04.119Z,male_vraiment_flat_146.wav,0,False,2637,58,h,5,0.355215,-91.494225
jeanmil,14,0,2024-03-03T15:50:04.119Z,male_vraiment_flat_146.wav,0,False,2637,58,h,6,0.426259,-109.708123
jeanmil,14,0,2024-03-03T15:50:04.119Z,male_vraiment_flat_165.wav,1,True,2637,58,h,0,0.000000,-133.486308
jeanmil,14,0,2024-03-03T15:50:04.119Z,male_vraiment_flat_165.wav,1,True,2637,58,h,1,0.071043,-51.704384
jeanmil,14,0,2024-03-03T15:50:04.119Z,male_vraiment_flat_165.wav,1,True,2637,58,h,2,0.142086,123.734410
jeanmil,14,0,2024-03-03T15:50:04.119Z,male_vraiment_flat_165.wav,1,True,2637,58,h,3,0.213129,-122.063627
jeanmil,14,0,2024-03-03T15:50:04.119Z,male_vraiment_flat_165.wav,1,True,2637,58,h,4,0.284172,105.373754
jeanmil,14,0,2024-03-03T15:50:04.119Z,male_vraiment_flat_165.wav,1,True,2637,58,h,5,0.355215,42.489978
jeanmil,14,0,2024-03-03T15:50:04.119Z,male_vraiment_flat_165.wav,1,True,2637,58,h,6,0.426259,65.536300
jeanmil,15,0,2024-03-03T15:50:04.119Z,male_vraiment_flat_130.wav,0,True,1516,58,h,0,0.000000,-146.057737
jeanmil,15,0,2024-03-03T15:50:04.119Z,male_vraiment_flat_130.wav,0,True,1516,58,h,1,0.071043,-49.781911
jeanmil,15,0,2024-03-03T15:50:04.119Z,male_vraiment_flat_130.wav,0,True,1516,58,h,2,0.142086,74.893740
jeanmil,15,0,2024-03-03T15:50:04.119Z,male_vraiment_flat_130.wav,0,True,1516,58,h,3,0.213129,-14.505163
jeanmil,15,0,2024-03-03T15:50:04.119Z,male_vraiment_flat_130.wav,0,True,1516,58,h,4,0.284172,16.979815
jeanmil,15,0,2024-03-03T15:50:04.119Z,male_vraiment_flat_130.wav,0,True,1516,58,h,5,0.355215,-66.512052
jeanmil,15,0,2024-03-03T15:50:04.119Z,male_vraiment_flat_130.wav,0,True,1516,58,h,6,0.426259,-59.569067
jeanmil,15,0,2024-03-03T15:50:04.119Z,male_vraiment_flat_153.wav,1,False,1516,58,h,0,0.000000,-62.105340
jeanmil,15,0,2024-03-03T15:50:04.119Z,male_vraiment_flat_153.wav,1,False,1516,58,h,1,0.071043,-52.997588
jeanmil,15,0,2024-03-03T15:50:04.119Z,male_vraiment_flat_153.wav,1,False,1516,58,h,2,0.142086,-76.077591
jeanmil,15,0,2024-03-03T15:50:04.119Z,male_vraiment_flat_153.wav,1,False,1516,58,h,3,0.213129,-18.807121
jeanmil,15,0,2024-03-03T15:50:04.119Z,male_vraiment_flat_153.wav,1,False,1516,58,h,4,0.284172,-115.396331
jeanmil,15,0,2024-03-03T15:50:04.119Z,male_vraiment_flat_153.wav,1,False,1516,58,h,5,0.355215,-128.292537
jeanmil,15,0,2024-03-03T15:50:04.119Z,male_vraiment_flat_153.wav,1,False,1516,58,h,6,0.426259,-78.650880
jeanmil,16,0,2024-03-03T15:50:04.119Z,male_vraiment_flat_110.wav,0,False,1163,58,h,0,0.000000,-78.850505
jeanmil,16,0,2024-03-03T15:50:04.119Z,male_vraiment_flat_110.wav,0,False,1163,58,h,1,0.071043,-96.953533
jeanmil,16,0,2024-03-03T15:50:04.119Z,male_vraiment_flat_110.wav,0,False,1163,58,h,2,0.142086,-38.365791
jeanmil,16,0,2024-03-03T15:50:04.119Z,male_vraiment_flat_110.wav,0,False,1163,58,h,3,0.213129,77.506607
jeanmil,16,0,2024-03-03T15:50:04.119Z,male_vraiment_flat_110.wav,0,False,1163,58,h,4,0.284172,-64.506238
jeanmil,16,0,2024-03-03T15:50:04.119Z,male_vraiment_flat_110.wav,0,False,1163,58,h,5,0.355215,15.353748
jeanmil,16,0,2024-03-03T15:50:04.119Z,male_vraiment_flat_110.wav,0,False,1163,58,h,6,0.426259,121.287299
jeanmil,16,0,2024-03-03T15:50:04.119Z,male_vraiment_flat_33.wav,1,True,1163,58,h,0,0.000000,77.429006
jeanmil,16,0,2024-03-03T15:50:04.119Z,male_vraiment_flat_33.wav,1,True,1163,58,h,1,0.071043,25.170622
jeanmil,16,0,2024-03-03T15:50:04.119Z,male_vraiment_flat_33.wav,1,True,1163,58,h,2,0.142086,-65.854422
jeanmil,16,0,2024-03-03T15:50:04.119Z,male_vraiment_flat_33.wav,1,True,1163,58,h,3,0.213129,106.380035
jeanmil,16,0,2024-03-03T15:50:04.119Z,male_vraiment_flat_33.wav,1,True,1163,58,h,4,0.284172,126.948212
jeanmil,16,0,2024-03-03T15:50:04.119Z,male_vraiment_flat_33.wav,1,True,1163,58,h,5,0.355215,88.675782
jeanmil,16,0,2024-03-03T15:50:04.119Z,male_vraiment_flat_33.wav,1,True,1163,58,h,6,0.426259,-129.822255
jeanmil,17,0,2024-03-03T15:50:04.119Z,male_vraiment_flat_180.wav,0,True,1348,58,h,0,0.000000,-17.910938
jeanmil,17,0,2024-03-03T15:50:04.119Z,male_vraiment_flat_180.wav,0,True,1348,58,h,1,0.071043,24.825304
jeanmil,17,0,2024-03-03T15:50:04.119Z,male_vraiment_flat_180.wav,0,True,1348,58,h,2,0.142086,-141.305904
jeanmil,17,0,2024-03-03T15:50:04.119Z,male_vraiment_flat_180.wav,0,True,1348,58,h,3,0.213129,39.379988
jeanmil,17,0,2024-03-03T15:50:04.119Z,male_vraiment_flat_180.wav,0,True,1348,58,h,4,0.284172,-132.932424
jeanmil,17,0,2024-03-03T15:50:04.119Z,male_vraiment_flat_180.wav,0,True,1348,58,h,5,0.355215,-6.123363
jeanmil,17,0,2024-03-03T15:50:04.119Z,male_vraiment_flat_180.wav,0,True,1348,58,h,6,0.426259,-0.737662
jeanmil,17,0,2024-03-03T15:50:04.119Z,male_vraiment_flat_57.wav,1,False,1348,58,h,0,0.000000,-38.971396
jeanmil,17,0,2024-03-03T15:50:04.119Z,male_vraiment_flat_57.wav,1,False,1348,58,h,1,0.071043,127.210639
jeanmil,17,0,2024-03-03T15:50:04.119Z,male_vraiment_flat_57.wav,1,False,1348,58,h,2,0.142086,-100.465383
jeanmil,17,0,2024-03-03T15:50:04.119Z,male_vraiment_flat_57.wav,1,False,1348,58,h,3,0.213129,-139.526819
jeanmil,17,0,2024-03-03T15:50:04.119Z,male_vraiment_flat_57.wav,1,False,1348,58,h,4,0.284172,-149.467980
jeanmil,17,0,2024-03-03T15:50:04.119Z,male_vraiment_flat_57.wav,1,False,1348,58,h,5,0.355215,-50.432071
jeanmil,17,0,2024-03-03T15:50:04.119Z,male_vraiment_flat_57.wav,1,False,1348,58,h,6,0.426259,15.305878
jeanmil,18,0,2024-03-03T15:50:04.119Z,male_vraiment_flat_88.wav,0,False,1396,58,h,0,0.000000,-104.432443
jeanmil,18,0,2024-03-03T15:50:04.119Z,male_vraiment_flat_88.wav,0,False,1396,58,h,1,0.071043,71.901933
jeanmil,18,0,2024-03-03T15:50:04.119Z,male_vraiment_flat_88.wav,0,False,1396,58,h,2,0.142086,62.017491
jeanmil,18,0,2024-03-03T15:50:04.119Z,male_vraiment_flat_88.wav,0,False,1396,58,h,3,0.213129,-148.109936
jeanmil,18,0,2024-03-03T15:50:04.119Z,male_vraiment_flat_88.wav,0,False,1396,58,h,4,0.284172,21.087169
jeanmil,18,0,2024-03-03T15:50:04.119Z,male_vraiment_flat_88.wav,0,False,1396,58,h,5,0.355215,98.793360
jeanmil,18,0,2024-03-03T15:50:04.119Z,male_vraiment_flat_88.wav,0,False,1396,58,h,6,0.426259,84.960800
jeanmil,18,0,2024-03-03T15:50:04.119Z,male_vraiment_flat_181.wav,1,True,1396,58,h,0,0.000000,87.984579
jeanmil,18,0,2024-03-03T15:50:04.119Z,male_vraiment_flat_181.wav,1,True,1396,58,h,1,0.071043,-52.749156
jeanmil,18,0,2024-03-03T15:50:04.119Z,male_vraiment_flat_181.wav,1,True,1396,58,h,2,0.142086,-81.744540
jeanmil,18,0,2024-03-03T15:50:04.119Z,male_vraiment_flat_181.wav,1,True,1396,58,h,3,0.213129,-103.539742
jeanmil,18,0,2024-03-03T15:50:04.119Z,male_vraiment_flat_181.wav,1,True,1396,58,h,4,0.284172,51.143910
jeanmil,18,0,2024-03-03T15:50:04.119Z,male_vraiment_flat_181.wav,1,True,1396,58,h,5,0.355215,89.293467
jeanmil,18,0,2024-03-03T15:50:04.119Z,male_vraiment_flat_181.wav,1,True,1396,58,h,6,0.426259,-33.289981
jeanmil,19,0,2024-03-03T15:50:04.119Z,male_vraiment_flat_6.wav,0,True,1259,58,h,0,0.000000,99.637695
jeanmil,19,0,2024-03-03T15:50:04.119Z,male_vraiment_flat_6.wav,0,True,1259,58,h,1,0.071043,129.019395
jeanmil,19,0,2024-03-03T15:50:04.119Z,male_vraiment_flat_6.wav,0,True,1259,58,h,2,0.142086,85.352544
jeanmil,19,0,2024-03-03T15:50:04.119Z,male_vraiment_flat_6.wav,0,True,1259,58,h,3,0.213129,122.275637
jeanmil,19,0,2024-03-03T15:50:04.119Z,male_vraiment_flat_6.wav,0,True,1259,58,h,4,0.284172,45.838224
jeanmil,19,0,2024-03-03T15:50:04.119Z,male_vraiment_flat_6.wav,0,True,1259,58,h,5,0.355215,149.126562
jeanmil,19,0,2024-03-03T15:50:04.119Z,male_vraiment_flat_6.wav,0,True,1259,58,h,6,0.426259,9.632372
jeanmil,19,0,2024-03-03T15:50:04.119Z,male_vraiment_flat_17.wav,1,False,1259,58,h,0,0.000000,91.198655
jeanmil,19,0,2024-03-03T15:50:04.119Z,male_vraiment_flat_17.wav,1,False,1259,58,h,1,0.071043,44.952547
jeanmil,19,0,2024-03-03T15:50:04.119Z,male_vraiment_flat_17.wav,1,False,1259,58,h,2,0.142086,-82.852461
jeanmil,19,0,2024-03-03T15:50:04.119Z,male_vraiment_flat_17.wav,1,False,1259,58,h,3,0.213129,-89.451177
jeanmil,19,0,2024-03-03T15:50:04.119Z,male_vraiment_flat_17.wav,1,False,1259,58,h,4,0.284172,-149.534475
jeanmil,19,0,2024-03-03T15:50:04.119Z,male_vraiment_flat_17.wav,1,False,1259,58,h,5,0.355215,-107.621144
jeanmil,19,0,2024-03-03T15:50:04.119Z,male_vraiment_flat_17.wav,1,False,1259,58,h,6,0.426259,-93.535165
jeanmil,20,0,2024-03-03T15:50:04.119Z,male_vraiment_flat_141.wav,0,True,1445,58,h,0,0.000000,137.275446
jeanmil,20,0,2024-03-03T15:50:04.119Z,male_vraiment_flat_141.wav,0,True,1445,58,h,1,0.071043,43.805847
jeanmil,20,0,2024-03-03T15:50:04.119Z,male_vraiment_flat_141.wav,0,True,1445,58,h,2,0.142086,-129.344909
jeanmil,20,0,2024-03-03T15:50:04.119Z,male_vraiment_flat_141.wav,0,True,1445,58,h,3,0.213129,-123.799171
jeanmil,20,0,2024-03-03T15:50:04.119Z,male_vraiment_flat_141.wav,0,True,1445,58,h,4,0.284172,-103.584410
jeanmil,20,0,2024-03-03T15:50:04.119Z,male_vraiment_flat_141.wav,0,True,1445,58,h,5,0.355215,8.047141
jeanmil,20,0,2024-03-03T15:50:04.119Z,male_vraiment_flat_141.wav,0,True,1445,58,h,6,0.426259,-108.188423
jeanmil,20,0,2024-03-03T15:50:04.119Z,male_vraiment_flat_122.wav,1,False,1445,58,h,0,0.000000,-51.664448
jeanmil,20,0,2024-03-03T15:50:04.119Z,male_vraiment_flat_122.wav,1,False,1445,58,h,1,0.071043,-83.789448
jeanmil,20,0,2024-03-03T15:50:04.119Z,male_vraiment_flat_122.wav,1,False,1445,58,h,2,0.142086,-129.204529
jeanmil,20,0,2024-03-03T15:50:04.119Z,male_vraiment_flat_122.wav,1,False,1445,58,h,3,0.213129,-2.729810
jeanmil,20,0,2024-03-03T15:50:04.119Z,male_vraiment_flat_122.wav,1,False,1445,58,h,4,0.284172,-63.338530
jeanmil,20,0,2024-03-03T15:50:04.119Z,male_vraiment_flat_122.wav,1,False,1445,58,h,5,0.355215,57.342517
jeanmil,20,0,2024-03-03T15:50:04.119Z,male_vraiment_flat_122.wav,1,False,1445,58,h,6,0.426259,30.309816
jeanmil,21,0,2024-03-03T15:50:04.119Z,male_vraiment_flat_177.wav,0,False,1501,58,h,0,0.000000,16.306046
jeanmil,21,0,2024-03-03T15:50:04.119Z,male_vraiment_flat_177.wav,0,False,1501,58,h,1,0.071043,49.193464
jeanmil,21,0,2024-03-03T15:50:04.119Z,male_vraiment_flat_177.wav,0,False,1501,58,h,2,0.142086,-57.450827
jeanmil,21,0,2024-03-03T15:50:04.119Z,male_vraiment_flat_177.wav,0,False,1501,58,h,3,0.213129,-71.200742
jeanmil,21,0,2024-03-03T15:50:04.119Z,male_vraiment_flat_177.wav,0,False,1501,58,h,4,0.284172,75.759547
jeanmil,21,0,2024-03-03T15:50:04.119Z,male_vraiment_flat_177.wav,0,False,1501,58,h,5,0.355215,-147.097868
jeanmil,21,0,2024-03-03T15:50:04.119Z,male_vraiment_flat_177.wav,0,False,1501,58,h,6,0.426259,-23.614561
jeanmil,21,0,2024-03-03T15:50:04.119Z,male_vraiment_flat_121.wav,1,True,1501,58,h,0,0.000000,-58.637887
jeanmil,21,0,2024-03-03T15:50:04.119Z,male_vraiment_flat_121.wav,1,True,1501,58,h,1,0.071043,-104.347196
jeanmil,21,0,2024-03-03T15:50:04.119Z,male_vraiment_flat_121.wav,1,True,1501,58,h,2,0.142086,149.905377
jeanmil,21,0,2024-03-03T15:50:04.119Z,male_vraiment_flat_121.wav,1,True,1501,58,h,3,0.213129,-98.681631
jeanmil,21,0,2024-03-03T15:50:04.119Z,male_vraiment_flat_121.wav,1,True,1501,58,h,4,0.284172,-147.265274
jeanmil,21,0,2024-03-03T15:50:04.119Z,male_vraiment_flat_121.wav,1,True,1501,58,h,5,0.355215,64.587538
jeanmil,21,0,2024-03-03T15:50:04.119Z,male_vraiment_flat_121.wav,1,True,1501,58,h,6,0.426259,26.674605
jeanmil,22,0,2024-03-03T15:50:04.119Z,male_vraiment_flat_47.wav,0,False,1277,58,h,0,0.000000,11.243959
jeanmil,22,0,2024-03-03T15:50:04.119Z,male_vraiment_flat_47.wav,0,False,1277,58,h,1,0.071043,-131.885563
jeanmil,22,0,2024-03-03T15:50:04.119Z,male_vraiment_flat_47.wav,0,False,1277,58,h,2,0.142086,22.720944
jeanmil,22,0,2024-03-03T15:50:04.119Z,male_vraiment_flat_47.wav,0,False,1277,58,h,3,0.213129,-98.981706
jeanmil,22,0,2024-03-03T15:50:04.119Z,male_vraiment_flat_47.wav,0,False,1277,58,h,4,0.284172,-117.392555
jeanmil,22,0,2024-03-03T15:50:04.119Z,male_vraiment_flat_47.wav,0,False,1277,58,h,5,0.355215,-7.362816
jeanmil,22,0,2024-03-03T15:50:04.119Z,male_vraiment_flat_47.wav,0,False,1277,58,h,6,0.426259,149.963589
jeanmil,22,0,2024-03-03T15:50:04.119Z,male_vraiment_flat_193.wav,1,True,1277,58,h,0,0.000000,-104.498046
jeanmil,22,0,2024-03-03T15:50:04.119Z,male_vraiment_flat_193.wav,1,True,1277,58,h,1,0.071043,27.454942
jeanmil,22,0,2024-03-03T15:50:04.119Z,male_vraiment_flat_193.wav,1,True,1277,58,h,2,0.142086,-81.084240
jeanmil,22,0,2024-03-03T15:50:04.119Z,male_vraiment_flat_193.wav,1,True,1277,58,h,3,0.213129,-66.105426
jeanmil,22,0,2024-03-03T15:50:04.119Z,male_vraiment_flat_193.wav,1,True,1277,58,h,4,0.284172,-18.843418
jeanmil,22,0,2024-03-03T15:50:04.119Z,male_vraiment_flat_193.wav,1,True,1277,58,h,5,0.355215,59.447118
jeanmil,22,0,2024-03-03T15:50:04.119Z,male_vraiment_flat_193.wav,1,True,1277,58,h,6,0.426259,86.357299
jeanmil,23,0,2024-03-03T15:50:04.119Z,male_vraiment_flat_61.wav,0,False,1307,58,h,0,0.000000,-131.156457
jeanmil,23,0,2024-03-03T15:50:04.119Z,male_vraiment_flat_61.wav,0,False,1307,58,h,1,0.071043,-97.865916
jeanmil,23,0,2024-03-03T15:50:04.119Z,male_vraiment_flat_61.wav,0,False,1307,58,h,2,0.142086,61.528867
jeanmil,23,0,2024-03-03T15:50:04.119Z,male_vraiment_flat_61.wav,0,False,1307,58,h,3,0.213129,-10.532302
jeanmil,23,0,2024-03-03T15:50:04.119Z,male_vraiment_flat_61.wav,0,False,1307,58,h,4,0.284172,-59.471070
jeanmil,23,0,2024-03-03T15:50:04.119Z,male_vraiment_flat_61.wav,0,False,1307,58,h,5,0.355215,77.665776
jeanmil,23,0,2024-03-03T15:50:04.119Z,male_vraiment_flat_61.wav,0,False,1307,58,h,6,0.426259,-95.375701
jeanmil,23,0,2024-03-03T15:50:04.119Z,male_vraiment_flat_118.wav,1,True,1307,58,h,0,0.000000,126.187147
jeanmil,23,0,2024-03-03T15:50:04.119Z,male_vraiment_flat_118.wav,1,True,1307,58,h,1,0.071043,44.969184
jeanmil,23,0,2024-03-03T15:50:04.119Z,male_vraiment_flat_118.wav,1,True,1307,58,h,2,0.142086,-108.017243
jeanmil,23,0,2024-03-03T15:50:04.119Z,male_vraiment_flat_118.wav,1,True,1307,58,h,3,0.213129,6.480803
jeanmil,23,0,2024-03-03T15:50:04.119Z,male_vraiment_flat_118.wav,1,True,1307,58,h,4,0.284172,89.811831
jeanmil,23,0,2024-03-03T15:50:04.119Z,male_vraiment_flat_118.wav,1,True,1307,58,h,5,0.355215,60.034007
jeanmil,23,0,2024-03-03T15:50:04.119Z,male_vraiment_flat_118.wav,1,True,1307,58,h,6,0.426259,63.317816
jeanmil,24,0,2024-03-03T15:50:04.119Z,male_vraiment_flat_158.wav,0,False,1309,58,h,0,0.000000,140.907348
jeanmil,24,0,2024-03-03T15:50:04.119Z,male_vraiment_flat_158.wav,0,False,1309,58,h,1,0.071043,56.647301
jeanmil,24,0,2024-03-03T15:50:04.119Z,male_vraiment_flat_158.wav,0,False,1309,58,h,2,0.142086,-121.852756
jeanmil,24,0,2024-03-03T15:50:04.119Z,male_vraiment_flat_158.wav,0,False,1309,58,h,3,0.213129,24.887877
jeanmil,24,0,2024-03-03T15:50:04.119Z,male_vraiment_flat_158.wav,0,False,1309,58,h,4,0.284172,-16.147612
jeanmil,24,0,2024-03-03T15:50:04.119Z,male_vraiment_flat_158.wav,0,False,1309,58,h,5,0.355215,22.171837
jeanmil,24,0,2024-03-03T15:50:04.119Z,male_vraiment_flat_158.wav,0,False,1309,58,h,6,0.426259,-49.022546
jeanmil,24,0,2024-03-03T15:50:04.119Z,male_vraiment_flat_169.wav,1,True,1309,58,h,0,0.000000,117.441793
jeanmil,24,0,2024-03-03T15:50:04.119Z,male_vraiment_flat_169.wav,1,True,1309,58,h,1,0.071043,-117.459261
jeanmil,24,0,2024-03-03T15:50:04.119Z,male_vraiment_flat_169.wav,1,True,1309,58,h,2,0.142086,-45.020491
jeanmil,24,0,2024-03-03T15:50:04.119Z,male_vraiment_flat_169.wav,1,True,1309,58,h,3,0.213129,-67.699150
jeanmil,24,0,2024-03-03T15:50:04.119Z,male_vraiment_flat_169.wav,1,True,1309,58,h,4,0.284172,-122.755451
jeanmil,24,0,2024-03-03T15:50:04.119Z,male_vraiment_flat_169.wav,1,True,1309,58,h,5,0.355215,-10.702133
jeanmil,24,0,2024-03-03T15:50:04.119Z,male_vraiment_flat_169.wav,1,True,1309,58,h,6,0.426259,66.943327
jeanmil,25,0,2024-03-03T15:50:04.119Z,male_vraiment_flat_0.wav,0,False,1223,58,h,0,0.000000,9.896041
jeanmil,25,0,2024-03-03T15:50:04.119Z,male_vraiment_flat_0.wav,0,False,1223,58,h,1,0.071043,101.528400
jeanmil,25,0,2024-03-03T15:50:04.119Z,male_vraiment_flat_0.wav,0,False,1223,58,h,2,0.142086,-68.097850
jeanmil,25,0,2024-03-03T15:50:04.119Z,male_vraiment_flat_0.wav,0,False,1223,58,h,3,0.213129,-142.658303
jeanmil,25,0,2024-03-03T15:50:04.119Z,male_vraiment_flat_0.wav,0,False,1223,58,h,4,0.284172,-120.248224
jeanmil,25,0,2024-03-03T15:50:04.119Z,male_vraiment_flat_0.wav,0,False,1223,58,h,5,0.355215,31.293845
jeanmil,25,0,2024-03-03T15:50:04.119Z,male_vraiment_flat_0.wav,0,False,1223,58,h,6,0.426259,-137.250528
jeanmil,25,0,2024-03-03T15:50:04.119Z,male_vraiment_flat_20.wav,1,True,1223,58,h,0,0.000000,-58.370476
jeanmil,25,0,2024-03-03T15:50:04.119Z,male_vraiment_flat_20.wav,1,True,1223,58,h,1,0.071043,112.073529
jeanmil,25,0,2024-03-03T15:50:04.119Z,male_vraiment_flat_20.wav,1,True,1223,58,h,2,0.142086,29.472628
jeanmil,25,0,2024-03-03T15:50:04.119Z,male_vraiment_flat_20.wav,1,True,1223,58,h,3,0.213129,-22.374222
jeanmil,25,0,2024-03-03T15:50:04.119Z,male_vraiment_flat_20.wav,1,True,1223,58,h,4,0.284172,-146.515998
jeanmil,25,0,2024-03-03T15:50:04.119Z,male_vraiment_flat_20.wav,1,True,1223,58,h,5,0.355215,47.280720
jeanmil,25,0,2024-03-03T15:50:04.119Z,male_vraiment_flat_20.wav,1,True,1223,58,h,6,0.426259,140.553925
jeanmil,26,0,2024-03-03T15:50:04.119Z,male_vraiment_flat_150.wav,0,False,1347,58,h,0,0.000000,-0.845919
jeanmil,26,0,2024-03-03T15:50:04.119Z,male_vraiment_flat_150.wav,0,False,1347,58,h,1,0.071043,-101.665398
jeanmil,26,0,2024-03-03T15:50:04.119Z,male_vraiment_flat_150.wav,0,False,1347,58,h,2,0.142086,-128.909269
jeanmil,26,0,2024-03-03T15:50:04.119Z,male_vraiment_flat_150.wav,0,False,1347,58,h,3,0.213129,-98.956601
jeanmil,26,0,2024-03-03T15:50:04.119Z,male_vraiment_flat_150.wav,0,False,1347,58,h,4,0.284172,-120.693020
jeanmil,26,0,2024-03-03T15:50:04.119Z,male_vraiment_flat_150.wav,0,False,1347,58,h,5,0.355215,-126.286795
jeanmil,26,0,2024-03-03T15:50:04.119Z,male_vraiment_flat_150.wav,0,False,1347,58,h,6,0.426259,121.368949
jeanmil,26,0,2024-03-03T15:50:04.119Z,male_vraiment_flat_75.wav,1,True,1347,58,h,0,0.000000,-102.776376
jeanmil,26,0,2024-03-03T15:50:04.119Z,male_vraiment_flat_75.wav,1,True,1347,58,h,1,0.071043,141.116849
jeanmil,26,0,2024-03-03T15:50:04.119Z,male_vraiment_flat_75.wav,1,True,1347,58,h,2,0.142086,12.209007
jeanmil,26,0,2024-03-03T15:50:04.119Z,male_vraiment_flat_75.wav,1,True,1347,58,h,3,0.213129,-138.758513
jeanmil,26,0,2024-03-03T15:50:04.119Z,male_vraiment_flat_75.wav,1,True,1347,58,h,4,0.284172,4.940697
jeanmil,26,0,2024-03-03T15:50:04.119Z,male_vraiment_flat_75.wav,1,True,1347,58,h,5,0.355215,67.499606
jeanmil,26,0,2024-03-03T15:50:04.119Z,male_vraiment_flat_75.wav,1,True,1347,58,h,6,0.426259,61.725226
jeanmil,27,0,2024-03-03T15:50:04.119Z,male_vraiment_flat_37.wav,0,False,1213,58,h,0,0.000000,-50.449081
jeanmil,27,0,2024-03-03T15:50:04.119Z,male_vraiment_flat_37.wav,0,False,1213,58,h,1,0.071043,28.423389
jeanmil,27,0,2024-03-03T15:50:04.119Z,male_vraiment_flat_37.wav,0,False,1213,58,h,2,0.142086,-105.344692
jeanmil,27,0,2024-03-03T15:50:04.119Z,male_vraiment_flat_37.wav,0,False,1213,58,h,3,0.213129,-99.811505
jeanmil,27,0,2024-03-03T15:50:04.119Z,male_vraiment_flat_37.wav,0,False,1213,58,h,4,0.284172,142.698740
jeanmil,27,0,2024-03-03T15:50:04.119Z,male_vraiment_flat_37.wav,0,False,1213,58,h,5,0.355215,-90.971946
jeanmil,27,0,2024-03-03T15:50:04.119Z,male_vraiment_flat_37.wav,0,False,1213,58,h,6,0.426259,19.642948
jeanmil,27,0,2024-03-03T15:50:04.119Z,male_vraiment_flat_92.wav,1,True,1213,58,h,0,0.000000,46.869845
jeanmil,27,0,2024-03-03T15:50:04.119Z,male_vraiment_flat_92.wav,1,True,1213,58,h,1,0.071043,-22.303854
jeanmil,27,0,2024-03-03T15:50:04.119Z,male_vraiment_flat_92.wav,1,True,1213,58,h,2,0.142086,54.218629
jeanmil,27,0,2024-03-03T15:50:04.119Z,male_vraiment_flat_92.wav,1,True,1213,58,h,3,0.213129,-37.706610
jeanmil,27,0,2024-03-03T15:50:04.119Z,male_vraiment_flat_92.wav,1,True,1213,58,h,4,0.284172,48.467677
jeanmil,27,0,2024-03-03T15:50:04.119Z,male_vraiment_flat_92.wav,1,True,1213,58,h,5,0.355215,-36.671620
jeanmil,27,0,2024-03-03T15:50:04.119Z,male_vraiment_flat_92.wav,1,True,1213,58,h,6,0.426259,-103.238186
jeanmil,28,0,2024-03-03T15:50:04.119Z,male_vraiment_flat_81.wav,0,True,1397,58,h,0,0.000000,35.884214
jeanmil,28,0,2024-03-03T15:50:04.119Z,male_vraiment_flat_81.wav,0,True,1397,58,h,1,0.071043,19.404831
jeanmil,28,0,2024-03-03T15:50:04.119Z,male_vraiment_flat_81.wav,0,True,1397,58,h,2,0.142086,121.693264
jeanmil,28,0,2024-03-03T15:50:04.119Z,male_vraiment_flat_81.wav,0,True,1397,58,h,3,0.213129,29.127429
jeanmil,28,0,2024-03-03T15:50:04.119Z,male_vraiment_flat_81.wav,0,True,1397,58,h,4,0.284172,71.322417
jeanmil,28,0,2024-03-03T15:50:04.119Z,male_vraiment_flat_81.wav,0,True,1397,58,h,5,0.355215,138.687922
jeanmil,28,0,2024-03-03T15:50:04.119Z,male_vraiment_flat_81.wav,0,True,1397,58,h,6,0.426259,110.537915
jeanmil,28,0,2024-03-03T15:50:04.119Z,male_vraiment_flat_168.wav,1,False,1397,58,h,0,0.000000,20.996757
jeanmil,28,0,2024-03-03T15:50:04.119Z,male_vraiment_flat_168.wav,1,False,1397,58,h,1,0.071043,53.221671
jeanmil,28,0,2024-03-03T15:50:04.119Z,male_vraiment_flat_168.wav,1,False,1397,58,h,2,0.142086,15.731623
jeanmil,28,0,2024-03-03T15:50:04.119Z,male_vraiment_flat_168.wav,1,False,1397,58,h,3,0.213129,99.382807
jeanmil,28,0,2024-03-03T15:50:04.119Z,male_vraiment_flat_168.wav,1,False,1397,58,h,4,0.284172,-57.914754
jeanmil,28,0,2024-03-03T15:50:04.119Z,male_vraiment_flat_168.wav,1,False,1397,58,h,5,0.355215,26.961730
jeanmil,28,0,2024-03-03T15:50:04.119Z,male_vraiment_flat_168.wav,1,False,1397,58,h,6,0.426259,-63.149674
jeanmil,29,0,2024-03-03T15:50:04.119Z,male_vraiment_flat_59.wav,0,True,1320,58,h,0,0.000000,-36.418372
jeanmil,29,0,2024-03-03T15:50:04.119Z,male_vraiment_flat_59.wav,0,True,1320,58,h,1,0.071043,84.104587
jeanmil,29,0,2024-03-03T15:50:04.119Z,male_vraiment_flat_59.wav,0,True,1320,58,h,2,0.142086,132.070943
jeanmil,29,0,2024-03-03T15:50:04.119Z,male_vraiment_flat_59.wav,0,True,1320,58,h,3,0.213129,-36.088233
jeanmil,29,0,2024-03-03T15:50:04.119Z,male_vraiment_flat_59.wav,0,True,1320,58,h,4,0.284172,-93.351425
jeanmil,29,0,2024-03-03T15:50:04.119Z,male_vraiment_flat_59.wav,0,True,1320,58,h,5,0.355215,57.665522
jeanmil,29,0,2024-03-03T15:50:04.119Z,male_vraiment_flat_59.wav,0,True,1320,58,h,6,0.426259,137.323922
jeanmil,29,0,2024-03-03T15:50:04.119Z,male_vraiment_flat_9.wav,1,False,1320,58,h,0,0.000000,85.332288
jeanmil,29,0,2024-03-03T15:50:04.119Z,male_vraiment_flat_9.wav,1,False,1320,58,h,1,0.071043,-113.949520
jeanmil,29,0,2024-03-03T15:50:04.119Z,male_vraiment_flat_9.wav,1,False,1320,58,h,2,0.142086,22.848070
jeanmil,29,0,2024-03-03T15:50:04.119Z,male_vraiment_flat_9.wav,1,False,1320,58,h,3,0.213129,-135.528843
jeanmil,29,0,2024-03-03T15:50:04.119Z,male_vraiment_flat_9.wav,1,False,1320,58,h,4,0.284172,76.460330
jeanmil,29,0,2024-03-03T15:50:04.119Z,male_vraiment_flat_9.wav,1,False,1320,58,h,5,0.355215,72.455461
jeanmil,29,0,2024-03-03T15:50:04.119Z,male_vraiment_flat_9.wav,1,False,1320,58,h,6,0.426259,-135.542556
jeanmil,30,0,2024-03-03T15:50:04.119Z,male_vraiment_flat_11.wav,0,False,1087,58,h,0,0.000000,106.632802
jeanmil,30,0,2024-03-03T15:50:04.119Z,male_vraiment_flat_11.wav,0,False,1087,58,h,1,0.071043,30.235531
jeanmil,30,0,2024-03-03T15:50:04.119Z,male_vraiment_flat_11.wav,0,False,1087,58,h,2,0.142086,-31.934811
jeanmil,30,0,2024-03-03T15:50:04.119Z,male_vraiment_flat_11.wav,0,False,1087,58,h,3,0.213129,-70.817469
jeanmil,30,0,2024-03-03T15:50:04.119Z,male_vraiment_flat_11.wav,0,False,1087,58,h,4,0.284172,-134.947845
jeanmil,30,0,2024-03-03T15:50:04.119Z,male_vraiment_flat_11.wav,0,False,1087,58,h,5,0.355215,-61.866249
jeanmil,30,0,2024-03-03T15:50:04.119Z,male_vraiment_flat_11.wav,0,False,1087,58,h,6,0.426259,61.370028
jeanmil,30,0,2024-03-03T15:50:04.119Z,male_vraiment_flat_68.wav,1,True,1087,58,h,0,0.000000,-95.161618
jeanmil,30,0,2024-03-03T15:50:04.119Z,male_vraiment_flat_68.wav,1,True,1087,58,h,1,0.071043,-119.152564
jeanmil,30,0,2024-03-03T15:50:04.119Z,male_vraiment_flat_68.wav,1,True,1087,58,h,2,0.142086,18.051976
jeanmil,30,0,2024-03-03T15:50:04.119Z,male_vraiment_flat_68.wav,1,True,1087,58,h,3,0.213129,-26.870716
jeanmil,30,0,2024-03-03T15:50:04.119Z,male_vraiment_flat_68.wav,1,True,1087,58,h,4,0.284172,87.472746
jeanmil,30,0,2024-03-03T15:50:04.119Z,male_vraiment_flat_68.wav,1,True,1087,58,h,5,0.355215,-56.607347
jeanmil,30,0,2024-03-03T15:50:04.119Z,male_vraiment_flat_68.wav,1,True,1087,58,h,6,0.426259,148.066508
jeanmil,31,0,2024-03-03T15:50:04.119Z,male_vraiment_flat_157.wav,0,False,1115,58,h,0,0.000000,20.473057
jeanmil,31,0,2024-03-03T15:50:04.119Z,male_vraiment_flat_157.wav,0,False,1115,58,h,1,0.071043,-103.427341
jeanmil,31,0,2024-03-03T15:50:04.119Z,male_vraiment_flat_157.wav,0,False,1115,58,h,2,0.142086,-58.670290
jeanmil,31,0,2024-03-03T15:50:04.119Z,male_vraiment_flat_157.wav,0,False,1115,58,h,3,0.213129,-88.181786
jeanmil,31,0,2024-03-03T15:50:04.119Z,male_vraiment_flat_157.wav,0,False,1115,58,h,4,0.284172,-145.892431
jeanmil,31,0,2024-03-03T15:50:04.119Z,male_vraiment_flat_157.wav,0,False,1115,58,h,5,0.355215,-121.197130
jeanmil,31,0,2024-03-03T15:50:04.119Z,male_vraiment_flat_157.wav,0,False,1115,58,h,6,0.426259,3.215116
jeanmil,31,0,2024-03-03T15:50:04.119Z,male_vraiment_flat_46.wav,1,True,1115,58,h,0,0.000000,48.231571
jeanmil,31,0,2024-03-03T15:50:04.119Z,male_vraiment_flat_46.wav,1,True,1115,58,h,1,0.071043,-13.386862
jeanmil,31,0,2024-03-03T15:50:04.119Z,male_vraiment_flat_46.wav,1,True,1115,58,h,2,0.142086,107.175029
jeanmil,31,0,2024-03-03T15:50:04.119Z,male_vraiment_flat_46.wav,1,True,1115,58,h,3,0.213129,24.056117
jeanmil,31,0,2024-03-03T15:50:04.119Z,male_vraiment_flat_46.wav,1,True,1115,58,h,4,0.284172,72.951541
jeanmil,31,0,2024-03-03T15:50:04.119Z,male_vraiment_flat_46.wav,1,True,1115,58,h,5,0.355215,123.539508
jeanmil,31,0,2024-03-03T15:50:04.119Z,male_vraiment_flat_46.wav,1,True,1115,58,h,6,0.426259,50.410407
jeanmil,32,0,2024-03-03T15:50:04.119Z,male_vraiment_flat_123.wav,0,True,1428,58,h,0,0.000000,24.338681
jeanmil,32,0,2024-03-03T15:50:04.119Z,male_vraiment_flat_123.wav,0,True,1428,58,h,1,0.071043,-76.255610
jeanmil,32,0,2024-03-03T15:50:04.119Z,male_vraiment_flat_123.wav,0,True,1428,58,h,2,0.142086,16.829571
jeanmil,32,0,2024-03-03T15:50:04.119Z,male_vraiment_flat_123.wav,0,True,1428,58,h,3,0.213129,3.085792
jeanmil,32,0,2024-03-03T15:50:04.119Z,male_vraiment_flat_123.wav,0,True,1428,58,h,4,0.284172,81.658793
jeanmil,32,0,2024-03-03T15:50:04.119Z,male_vraiment_flat_123.wav,0,True,1428,58,h,5,0.355215,73.758354
jeanmil,32,0,2024-03-03T15:50:04.119Z,male_vraiment_flat_123.wav,0,True,1428,58,h,6,0.426259,103.644220
jeanmil,32,0,2024-03-03T15:50:04.119Z,male_vraiment_flat_140.wav,1,False,1428,58,h,0,0.000000,-149.304179
jeanmil,32,0,2024-03-03T15:50:04.119Z,male_vraiment_flat_140.wav,1,False,1428,58,h,1,0.071043,148.600586
jeanmil,32,0,2024-03-03T15:50:04.119Z,male_vraiment_flat_140.wav,1,False,1428,58,h,2,0.142086,-115.715849
jeanmil,32,0,2024-03-03T15:50:04.119Z,male_vraiment_flat_140.wav,1,False,1428,58,h,3,0.213129,139.265939
jeanmil,32,0,2024-03-03T15:50:04.119Z,male_vraiment_flat_140.wav,1,False,1428,58,h,4,0.284172,45.121427
jeanmil,32,0,2024-03-03T15:50:04.119Z,male_vraiment_flat_140.wav,1,False,1428,58,h,5,0.355215,-93.318951
jeanmil,32,0,2024-03-03T15:50:04.119Z,male_vraiment_flat_140.wav,1,False,1428,58,h,6,0.426259,-66.215565
jeanmil,33,0,2024-03-03T15:50:04.119Z,male_vraiment_flat_10.wav,0,False,1693,58,h,0,0.000000,-59.283835
jeanmil,33,0,2024-03-03T15:50:04.119Z,male_vraiment_flat_10.wav,0,False,1693,58,h,1,0.071043,33.418752
jeanmil,33,0,2024-03-03T15:50:04.119Z,male_vraiment_flat_10.wav,0,False,1693,58,h,2,0.142086,-98.686452
jeanmil,33,0,2024-03-03T15:50:04.119Z,male_vraiment_flat_10.wav,0,False,1693,58,h,3,0.213129,137.870403
jeanmil,33,0,2024-03-03T15:50:04.119Z,male_vraiment_flat_10.wav,0,False,1693,58,h,4,0.284172,-113.384751
jeanmil,33,0,2024-03-03T15:50:04.119Z,male_vraiment_flat_10.wav,0,False,1693,58,h,5,0.355215,-122.497954
jeanmil,33,0,2024-03-03T15:50:04.119Z,male_vraiment_flat_10.wav,0,False,1693,58,h,6,0.426259,-121.154526
jeanmil,33,0,2024-03-03T15:50:04.119Z,male_vraiment_flat_35.wav,1,True,1693,58,h,0,0.000000,-80.907759
jeanmil,33,0,2024-03-03T15:50:04.119Z,male_vraiment_flat_35.wav,1,True,1693,58,h,1,0.071043,-44.446048
jeanmil,33,0,2024-03-03T15:50:04.119Z,male_vraiment_flat_35.wav,1,True,1693,58,h,2,0.142086,-51.579277
jeanmil,33,0,2024-03-03T15:50:04.119Z,male_vraiment_flat_35.wav,1,True,1693,58,h,3,0.213129,-66.764099
jeanmil,33,0,2024-03-03T15:50:04.119Z,male_vraiment_flat_35.wav,1,True,1693,58,h,4,0.284172,-35.478686
jeanmil,33,0,2024-03-03T15:50:04.119Z,male_vraiment_flat_35.wav,1,True,1693,58,h,5,0.355215,-86.823570
jeanmil,33,0,2024-03-03T15:50:04.119Z,male_vraiment_flat_35.wav,1,True,1693,58,h,6,0.426259,26.550026
jeanmil,34,0,2024-03-03T15:50:04.119Z,male_vraiment_flat_28.wav,0,False,1596,58,h,0,0.000000,82.321174
jeanmil,34,0,2024-03-03T15:50:04.119Z,male_vraiment_flat_28.wav,0,False,1596,58,h,1,0.071043,-139.171806
jeanmil,34,0,2024-03-03T15:50:04.119Z,male_vraiment_flat_28.wav,0,False,1596,58,h,2,0.142086,-25.451767
jeanmil,34,0,2024-03-03T15:50:04.119Z,male_vraiment_flat_28.wav,0,False,1596,58,h,3,0.213129,-113.179723
jeanmil,34,0,2024-03-03T15:50:04.119Z,male_vraiment_flat_28.wav,0,False,1596,58,h,4,0.284172,-97.955774
jeanmil,34,0,2024-03-03T15:50:04.119Z,male_vraiment_flat_28.wav,0,False,1596,58,h,5,0.355215,43.444463
jeanmil,34,0,2024-03-03T15:50:04.119Z,male_vraiment_flat_28.wav,0,False,1596,58,h,6,0.426259,-9.291608
jeanmil,34,0,2024-03-03T15:50:04.119Z,male_vraiment_flat_24.wav,1,True,1596,58,h,0,0.000000,-144.276814
jeanmil,34,0,2024-03-03T15:50:04.119Z,male_vraiment_flat_24.wav,1,True,1596,58,h,1,0.071043,-59.436611
jeanmil,34,0,2024-03-03T15:50:04.119Z,male_vraiment_flat_24.wav,1,True,1596,58,h,2,0.142086,45.565590
jeanmil,34,0,2024-03-03T15:50:04.119Z,male_vraiment_flat_24.wav,1,True,1596,58,h,3,0.213129,19.626340
jeanmil,34,0,2024-03-03T15:50:04.119Z,male_vraiment_flat_24.wav,1,True,1596,58,h,4,0.284172,-127.586662
jeanmil,34,0,2024-03-03T15:50:04.119Z,male_vraiment_flat_24.wav,1,True,1596,58,h,5,0.355215,59.214853
jeanmil,34,0,2024-03-03T15:50:04.119Z,male_vraiment_flat_24.wav,1,True,1596,58,h,6,0.426259,-70.996219
jeanmil,35,0,2024-03-03T15:50:04.119Z,male_vraiment_flat_164.wav,0,False,1139,58,h,0,0.000000,-99.029475
jeanmil,35,0,2024-03-03T15:50:04.119Z,male_vraiment_flat_164.wav,0,False,1139,58,h,1,0.071043,-83.219544
jeanmil,35,0,2024-03-03T15:50:04.119Z,male_vraiment_flat_164.wav,0,False,1139,58,h,2,0.142086,-76.160804
jeanmil,35,0,2024-03-03T15:50:04.119Z,male_vraiment_flat_164.wav,0,False,1139,58,h,3,0.213129,-60.412119
jeanmil,35,0,2024-03-03T15:50:04.119Z,male_vraiment_flat_164.wav,0,False,1139,58,h,4,0.284172,-135.438027
jeanmil,35,0,2024-03-03T15:50:04.119Z,male_vraiment_flat_164.wav,0,False,1139,58,h,5,0.355215,-30.546522
jeanmil,35,0,2024-03-03T15:50:04.119Z,male_vraiment_flat_164.wav,0,False,1139,58,h,6,0.426259,-142.367635
jeanmil,35,0,2024-03-03T15:50:04.119Z,male_vraiment_flat_27.wav,1,True,1139,58,h,0,0.000000,-44.196026
jeanmil,35,0,2024-03-03T15:50:04.119Z,male_vraiment_flat_27.wav,1,True,1139,58,h,1,0.071043,72.435582
jeanmil,35,0,2024-03-03T15:50:04.119Z,male_vraiment_flat_27.wav,1,True,1139,58,h,2,0.142086,30.880154
jeanmil,35,0,2024-03-03T15:50:04.119Z,male_vraiment_flat_27.wav,1,True,1139,58,h,3,0.213129,-98.055697
jeanmil,35,0,2024-03-03T15:50:04.119Z,male_vraiment_flat_27.wav,1,True,1139,58,h,4,0.284172,83.700413
jeanmil,35,0,2024-03-03T15:50:04.119Z,male_vraiment_flat_27.wav,1,True,1139,58,h,5,0.355215,23.865121
jeanmil,35,0,2024-03-03T15:50:04.119Z,male_vraiment_flat_27.wav,1,True,1139,58,h,6,0.426259,-44.006115
jeanmil,36,0,2024-03-03T15:50:04.119Z,male_vraiment_flat_93.wav,0,False,2092,58,h,0,0.000000,89.760217
jeanmil,36,0,2024-03-03T15:50:04.119Z,male_vraiment_flat_93.wav,0,False,2092,58,h,1,0.071043,18.591855
jeanmil,36,0,2024-03-03T15:50:04.119Z,male_vraiment_flat_93.wav,0,False,2092,58,h,2,0.142086,63.582537
jeanmil,36,0,2024-03-03T15:50:04.119Z,male_vraiment_flat_93.wav,0,False,2092,58,h,3,0.213129,147.491611
jeanmil,36,0,2024-03-03T15:50:04.119Z,male_vraiment_flat_93.wav,0,False,2092,58,h,4,0.284172,-113.128196
jeanmil,36,0,2024-03-03T15:50:04.119Z,male_vraiment_flat_93.wav,0,False,2092,58,h,5,0.355215,12.197118
jeanmil,36,0,2024-03-03T15:50:04.119Z,male_vraiment_flat_93.wav,0,False,2092,58,h,6,0.426259,-36.730637
jeanmil,36,0,2024-03-03T15:50:04.119Z,male_vraiment_flat_52.wav,1,True,2092,58,h,0,0.000000,-133.801400
jeanmil,36,0,2024-03-03T15:50:04.119Z,male_vraiment_flat_52.wav,1,True,2092,58,h,1,0.071043,34.189717
jeanmil,36,0,2024-03-03T15:50:04.119Z,male_vraiment_flat_52.wav,1,True,2092,58,h,2,0.142086,-145.714669
jeanmil,36,0,2024-03-03T15:50:04.119Z,male_vraiment_flat_52.wav,1,True,2092,58,h,3,0.213129,1.717896
jeanmil,36,0,2024-03-03T15:50:04.119Z,male_vraiment_flat_52.wav,1,True,2092,58,h,4,0.284172,99.036025
jeanmil,36,0,2024-03-03T15:50:04.119Z,male_vraiment_flat_52.wav,1,True,2092,58,h,5,0.355215,56.473042
jeanmil,36,0,2024-03-03T15:50:04.119Z,male_vraiment_flat_52.wav,1,True,2092,58,h,6,0.426259,113.578937
jeanmil,37,0,2024-03-03T15:50:04.119Z,male_vraiment_flat_117.wav,0,False,917,58,h,0,0.000000,20.648074
jeanmil,37,0,2024-03-03T15:50:04.119Z,male_vraiment_flat_117.wav,0,False,917,58,h,1,0.071043,145.233438
jeanmil,37,0,2024-03-03T15:50:04.119Z,male_vraiment_flat_117.wav,0,False,917,58,h,2,0.142086,42.346521
jeanmil,37,0,2024-03-03T15:50:04.119Z,male_vraiment_flat_117.wav,0,False,917,58,h,3,0.213129,-116.594338
jeanmil,37,0,2024-03-03T15:50:04.119Z,male_vraiment_flat_117.wav,0,False,917,58,h,4,0.284172,94.892274
jeanmil,37,0,2024-03-03T15:50:04.119Z,male_vraiment_flat_117.wav,0,False,917,58,h,5,0.355215,-123.170662
jeanmil,37,0,2024-03-03T15:50:04.119Z,male_vraiment_flat_117.wav,0,False,917,58,h,6,0.426259,83.715702
jeanmil,37,0,2024-03-03T15:50:04.119Z,male_vraiment_flat_42.wav,1,True,917,58,h,0,0.000000,-6.709342
jeanmil,37,0,2024-03-03T15:50:04.119Z,male_vraiment_flat_42.wav,1,True,917,58,h,1,0.071043,35.704202
jeanmil,37,0,2024-03-03T15:50:04.119Z,male_vraiment_flat_42.wav,1,True,917,58,h,2,0.142086,-71.421689
jeanmil,37,0,2024-03-03T15:50:04.119Z,male_vraiment_flat_42.wav,1,True,917,58,h,3,0.213129,-126.906461
jeanmil,37,0,2024-03-03T15:50:04.119Z,male_vraiment_flat_42.wav,1,True,917,58,h,4,0.284172,10.231121
jeanmil,37,0,2024-03-03T15:50:04.119Z,male_vraiment_flat_42.wav,1,True,917,58,h,5,0.355215,128.933526
jeanmil,37,0,2024-03-03T15:50:04.119Z,male_vraiment_flat_42.wav,1,True,917,58,h,6,0.426259,-76.727395
jeanmil,38,0,2024-03-03T15:50:04.119Z,male_vraiment_flat_21.wav,0,False,2597,58,h,0,0.000000,84.422922
jeanmil,38,0,2024-03-03T15:50:04.119Z,male_vraiment_flat_21.wav,0,False,2597,58,h,1,0.071043,34.734306
jeanmil,38,0,2024-03-03T15:50:04.119Z,male_vraiment_flat_21.wav,0,False,2597,58,h,2,0.142086,84.348012
jeanmil,38,0,2024-03-03T15:50:04.119Z,male_vraiment_flat_21.wav,0,False,2597,58,h,3,0.213129,-112.005491
jeanmil,38,0,2024-03-03T15:50:04.119Z,male_vraiment_flat_21.wav,0,False,2597,58,h,4,0.284172,147.407394
jeanmil,38,0,2024-03-03T15:50:04.119Z,male_vraiment_flat_21.wav,0,False,2597,58,h,5,0.355215,-6.622355
jeanmil,38,0,2024-03-03T15:50:04.119Z,male_vraiment_flat_21.wav,0,False,2597,58,h,6,0.426259,125.674103
jeanmil,38,0,2024-03-03T15:50:04.119Z,male_vraiment_flat_38.wav,1,True,2597,58,h,0,0.000000,144.136513
jeanmil,38,0,2024-03-03T15:50:04.119Z,male_vraiment_flat_38.wav,1,True,2597,58,h,1,0.071043,-64.103106
jeanmil,38,0,2024-03-03T15:50:04.119Z,male_vraiment_flat_38.wav,1,True,2597,58,h,2,0.142086,-98.673112
jeanmil,38,0,2024-03-03T15:50:04.119Z,male_vraiment_flat_38.wav,1,True,2597,58,h,3,0.213129,-23.920097
jeanmil,38,0,2024-03-03T15:50:04.119Z,male_vraiment_flat_38.wav,1,True,2597,58,h,4,0.284172,-49.884553
jeanmil,38,0,2024-03-03T15:50:04.119Z,male_vraiment_flat_38.wav,1,True,2597,58,h,5,0.355215,-104.927811
jeanmil,38,0,2024-03-03T15:50:04.119Z,male_vraiment_flat_38.wav,1,True,2597,58,h,6,0.426259,133.075001
jeanmil,39,0,2024-03-03T15:50:04.119Z,male_vraiment_flat_144.wav,0,True,1400,58,h,0,0.000000,-68.167624
jeanmil,39,0,2024-03-03T15:50:04.119Z,male_vraiment_flat_144.wav,0,True,1400,58,h,1,0.071043,-79.458647
jeanmil,39,0,2024-03-03T15:50:04.119Z,male_vraiment_flat_144.wav,0,True,1400,58,h,2,0.142086,-79.660425
jeanmil,39,0,2024-03-03T15:50:04.119Z,male_vraiment_flat_144.wav,0,True,1400,58,h,3,0.213129,60.124898
jeanmil,39,0,2024-03-03T15:50:04.119Z,male_vraiment_flat_144.wav,0,True,1400,58,h,4,0.284172,21.367664
jeanmil,39,0,2024-03-03T15:50:04.119Z,male_vraiment_flat_144.wav,0,True,1400,58,h,5,0.355215,44.158096
jeanmil,39,0,2024-03-03T15:50:04.119Z,male_vraiment_flat_144.wav,0,True,1400,58,h,6,0.426259,60.089593
jeanmil,39,0,2024-03-03T15:50:04.119Z,male_vraiment_flat_120.wav,1,False,1400,58,h,0,0.000000,20.081065
jeanmil,39,0,2024-03-03T15:50:04.119Z,male_vraiment_flat_120.wav,1,False,1400,58,h,1,0.071043,100.844988
jeanmil,39,0,2024-03-03T15:50:04.119Z,male_vraiment_flat_120.wav,1,False,1400,58,h,2,0.142086,-34.199178
jeanmil,39,0,2024-03-03T15:50:04.119Z,male_vraiment_flat_120.wav,1,False,1400,58,h,3,0.213129,-3.979999
jeanmil,39,0,2024-03-03T15:50:04.119Z,male_vraiment_flat_120.wav,1,False,1400,58,h,4,0.284172,-132.448085
jeanmil,39,0,2024-03-03T15:50:04.119Z,male_vraiment_flat_120.wav,1,False,1400,58,h,5,0.355215,-95.704719
jeanmil,39,0,2024-03-03T15:50:04.119Z,male_vraiment_flat_120.wav,1,False,1400,58,h,6,0.426259,-2.125632
jeanmil,40,0,2024-03-03T15:50:04.119Z,male_vraiment_flat_64.wav,0,False,1635,58,h,0,0.000000,113.461811
jeanmil,40,0,2024-03-03T15:50:04.119Z,male_vraiment_flat_64.wav,0,False,1635,58,h,1,0.071043,60.375974
jeanmil,40,0,2024-03-03T15:50:04.119Z,male_vraiment_flat_64.wav,0,False,1635,58,h,2,0.142086,-103.339599
jeanmil,40,0,2024-03-03T15:50:04.119Z,male_vraiment_flat_64.wav,0,False,1635,58,h,3,0.213129,103.179307
jeanmil,40,0,2024-03-03T15:50:04.119Z,male_vraiment_flat_64.wav,0,False,1635,58,h,4,0.284172,81.101135
jeanmil,40,0,2024-03-03T15:50:04.119Z,male_vraiment_flat_64.wav,0,False,1635,58,h,5,0.355215,-3.861127
jeanmil,40,0,2024-03-03T15:50:04.119Z,male_vraiment_flat_64.wav,0,False,1635,58,h,6,0.426259,-77.158959
jeanmil,40,0,2024-03-03T15:50:04.119Z,male_vraiment_flat_4.wav,1,True,1635,58,h,0,0.000000,98.226066
jeanmil,40,0,2024-03-03T15:50:04.119Z,male_vraiment_flat_4.wav,1,True,1635,58,h,1,0.071043,119.322928
jeanmil,40,0,2024-03-03T15:50:04.119Z,male_vraiment_flat_4.wav,1,True,1635,58,h,2,0.142086,-139.339853
jeanmil,40,0,2024-03-03T15:50:04.119Z,male_vraiment_flat_4.wav,1,True,1635,58,h,3,0.213129,-46.932317
jeanmil,40,0,2024-03-03T15:50:04.119Z,male_vraiment_flat_4.wav,1,True,1635,58,h,4,0.284172,-13.288809
jeanmil,40,0,2024-03-03T15:50:04.119Z,male_vraiment_flat_4.wav,1,True,1635,58,h,5,0.355215,94.861826
jeanmil,40,0,2024-03-03T15:50:04.119Z,male_vraiment_flat_4.wav,1,True,1635,58,h,6,0.426259,-84.397607
jeanmil,41,0,2024-03-03T15:50:04.119Z,male_vraiment_flat_187.wav,0,False,1260,58,h,0,0.000000,-30.403680
jeanmil,41,0,2024-03-03T15:50:04.119Z,male_vraiment_flat_187.wav,0,False,1260,58,h,1,0.071043,-60.531290
jeanmil,41,0,2024-03-03T15:50:04.119Z,male_vraiment_flat_187.wav,0,False,1260,58,h,2,0.142086,-84.335778
jeanmil,41,0,2024-03-03T15:50:04.119Z,male_vraiment_flat_187.wav,0,False,1260,58,h,3,0.213129,-15.670285
jeanmil,41,0,2024-03-03T15:50:04.119Z,male_vraiment_flat_187.wav,0,False,1260,58,h,4,0.284172,-56.852158
jeanmil,41,0,2024-03-03T15:50:04.119Z,male_vraiment_flat_187.wav,0,False,1260,58,h,5,0.355215,50.399162
jeanmil,41,0,2024-03-03T15:50:04.119Z,male_vraiment_flat_187.wav,0,False,1260,58,h,6,0.426259,83.384475
jeanmil,41,0,2024-03-03T15:50:04.119Z,male_vraiment_flat_125.wav,1,True,1260,58,h,0,0.000000,-40.862052
jeanmil,41,0,2024-03-03T15:50:04.119Z,male_vraiment_flat_125.wav,1,True,1260,58,h,1,0.071043,93.193290
jeanmil,41,0,2024-03-03T15:50:04.119Z,male_vraiment_flat_125.wav,1,True,1260,58,h,2,0.142086,71.046063
jeanmil,41,0,2024-03-03T15:50:04.119Z,male_vraiment_flat_125.wav,1,True,1260,58,h,3,0.213129,-144.093496
jeanmil,41,0,2024-03-03T15:50:04.119Z,male_vraiment_flat_125.wav,1,True,1260,58,h,4,0.284172,-1.218193
jeanmil,41,0,2024-03-03T15:50:04.119Z,male_vraiment_flat_125.wav,1,True,1260,58,h,5,0.355215,94.223966
jeanmil,41,0,2024-03-03T15:50:04.119Z,male_vraiment_flat_125.wav,1,True,1260,58,h,6,0.426259,-56.349938
jeanmil,42,0,2024-03-03T15:50:04.119Z,male_vraiment_flat_12.wav,0,True,2023,58,h,0,0.000000,-11.936919
jeanmil,42,0,2024-03-03T15:50:04.119Z,male_vraiment_flat_12.wav,0,True,2023,58,h,1,0.071043,-51.249998
jeanmil,42,0,2024-03-03T15:50:04.119Z,male_vraiment_flat_12.wav,0,True,2023,58,h,2,0.142086,42.322915
jeanmil,42,0,2024-03-03T15:50:04.119Z,male_vraiment_flat_12.wav,0,True,2023,58,h,3,0.213129,-19.839410
jeanmil,42,0,2024-03-03T15:50:04.119Z,male_vraiment_flat_12.wav,0,True,2023,58,h,4,0.284172,46.127041
jeanmil,42,0,2024-03-03T15:50:04.119Z,male_vraiment_flat_12.wav,0,True,2023,58,h,5,0.355215,34.596861
jeanmil,42,0,2024-03-03T15:50:04.119Z,male_vraiment_flat_12.wav,0,True,2023,58,h,6,0.426259,143.594573
jeanmil,42,0,2024-03-03T15:50:04.119Z,male_vraiment_flat_112.wav,1,False,2023,58,h,0,0.000000,40.318333
jeanmil,42,0,2024-03-03T15:50:04.119Z,male_vraiment_flat_112.wav,1,False,2023,58,h,1,0.071043,28.779991
jeanmil,42,0,2024-03-03T15:50:04.119Z,male_vraiment_flat_112.wav,1,False,2023,58,h,2,0.142086,-86.990654
jeanmil,42,0,2024-03-03T15:50:04.119Z,male_vraiment_flat_112.wav,1,False,2023,58,h,3,0.213129,-136.064498
jeanmil,42,0,2024-03-03T15:50:04.119Z,male_vraiment_flat_112.wav,1,False,2023,58,h,4,0.284172,89.286191
jeanmil,42,0,2024-03-03T15:50:04.119Z,male_vraiment_flat_112.wav,1,False,2023,58,h,5,0.355215,99.616935
jeanmil,42,0,2024-03-03T15:50:04.119Z,male_vraiment_flat_112.wav,1,False,2023,58,h,6,0.426259,-61.253639
jeanmil,43,0,2024-03-03T15:50:04.119Z,male_vraiment_flat_105.wav,0,True,2620,58,h,0,0.000000,125.556012
jeanmil,43,0,2024-03-03T15:50:04.119Z,male_vraiment_flat_105.wav,0,True,2620,58,h,1,0.071043,102.885047
jeanmil,43,0,2024-03-03T15:50:04.119Z,male_vraiment_flat_105.wav,0,True,2620,58,h,2,0.142086,-23.318884
jeanmil,43,0,2024-03-03T15:50:04.119Z,male_vraiment_flat_105.wav,0,True,2620,58,h,3,0.213129,96.270063
jeanmil,43,0,2024-03-03T15:50:04.119Z,male_vraiment_flat_105.wav,0,True,2620,58,h,4,0.284172,-32.661499
jeanmil,43,0,2024-03-03T15:50:04.119Z,male_vraiment_flat_105.wav,0,True,2620,58,h,5,0.355215,-7.829717
jeanmil,43,0,2024-03-03T15:50:04.119Z,male_vraiment_flat_105.wav,0,True,2620,58,h,6,0.426259,-13.047753
jeanmil,43,0,2024-03-03T15:50:04.119Z,male_vraiment_flat_63.wav,1,False,2620,58,h,0,0.000000,106.489910
jeanmil,43,0,2024-03-03T15:50:04.119Z,male_vraiment_flat_63.wav,1,False,2620,58,h,1,0.071043,-87.090173
jeanmil,43,0,2024-03-03T15:50:04.119Z,male_vraiment_flat_63.wav,1,False,2620,58,h,2,0.142086,63.865444
jeanmil,43,0,2024-03-03T15:50:04.119Z,male_vraiment_flat_63.wav,1,False,2620,58,h,3,0.213129,-130.111458
jeanmil,43,0,2024-03-03T15:50:04.119Z,male_vraiment_flat_63.wav,1,False,2620,58,h,4,0.284172,45.870405
jeanmil,43,0,2024-03-03T15:50:04.119Z,male_vraiment_flat_63.wav,1,False,2620,58,h,5,0.355215,-60.104934
jeanmil,43,0,2024-03-03T15:50:04.119Z,male_vraiment_flat_63.wav,1,False,2620,58,h,6,0.426259,67.674520
jeanmil,44,0,2024-03-03T15:50:04.119Z,male_vraiment_flat_184.wav,0,False,1397,58,h,0,0.000000,86.245131
jeanmil,44,0,2024-03-03T15:50:04.119Z,male_vraiment_flat_184.wav,0,False,1397,58,h,1,0.071043,106.604050
jeanmil,44,0,2024-03-03T15:50:04.119Z,male_vraiment_flat_184.wav,0,False,1397,58,h,2,0.142086,-48.425154
jeanmil,44,0,2024-03-03T15:50:04.119Z,male_vraiment_flat_184.wav,0,False,1397,58,h,3,0.213129,48.927001
jeanmil,44,0,2024-03-03T15:50:04.119Z,male_vraiment_flat_184.wav,0,False,1397,58,h,4,0.284172,-82.972934
jeanmil,44,0,2024-03-03T15:50:04.119Z,male_vraiment_flat_184.wav,0,False,1397,58,h,5,0.355215,73.552976
jeanmil,44,0,2024-03-03T15:50:04.119Z,male_vraiment_flat_184.wav,0,False,1397,58,h,6,0.426259,-131.359115
jeanmil,44,0,2024-03-03T15:50:04.119Z,male_vraiment_flat_195.wav,1,True,1397,58,h,0,0.000000,-54.423844
jeanmil,44,0,2024-03-03T15:50:04.119Z,male_vraiment_flat_195.wav,1,True,1397,58,h,1,0.071043,81.067183
jeanmil,44,0,2024-03-03T15:50:04.119Z,male_vraiment_flat_195.wav,1,True,1397,58,h,2,0.142086,-60.396049
jeanmil,44,0,2024-03-03T15:50:04.119Z,male_vraiment_flat_195.wav,1,True,1397,58,h,3,0.213129,-65.685418
jeanmil,44,0,2024-03-03T15:50:04.119Z,male_vraiment_flat_195.wav,1,True,1397,58,h,4,0.284172,141.607211
jeanmil,44,0,2024-03-03T15:50:04.119Z,male_vraiment_flat_195.wav,1,True,1397,58,h,5,0.355215,37.879388
jeanmil,44,0,2024-03-03T15:50:04.119Z,male_vraiment_flat_195.wav,1,True,1397,58,h,6,0.426259,-52.972183
jeanmil,45,0,2024-03-03T15:50:04.119Z,male_vraiment_flat_15.wav,0,False,1483,58,h,0,0.000000,-99.515509
jeanmil,45,0,2024-03-03T15:50:04.119Z,male_vraiment_flat_15.wav,0,False,1483,58,h,1,0.071043,-34.266668
jeanmil,45,0,2024-03-03T15:50:04.119Z,male_vraiment_flat_15.wav,0,False,1483,58,h,2,0.142086,14.847828
jeanmil,45,0,2024-03-03T15:50:04.119Z,male_vraiment_flat_15.wav,0,False,1483,58,h,3,0.213129,69.933849
jeanmil,45,0,2024-03-03T15:50:04.119Z,male_vraiment_flat_15.wav,0,False,1483,58,h,4,0.284172,112.308778
jeanmil,45,0,2024-03-03T15:50:04.119Z,male_vraiment_flat_15.wav,0,False,1483,58,h,5,0.355215,84.391608
jeanmil,45,0,2024-03-03T15:50:04.119Z,male_vraiment_flat_15.wav,0,False,1483,58,h,6,0.426259,-74.687150
jeanmil,45,0,2024-03-03T15:50:04.119Z,male_vraiment_flat_197.wav,1,True,1483,58,h,0,0.000000,7.012988
jeanmil,45,0,2024-03-03T15:50:04.119Z,male_vraiment_flat_197.wav,1,True,1483,58,h,1,0.071043,64.551185
jeanmil,45,0,2024-03-03T15:50:04.119Z,male_vraiment_flat_197.wav,1,True,1483,58,h,2,0.142086,-65.392523
jeanmil,45,0,2024-03-03T15:50:04.119Z,male_vraiment_flat_197.wav,1,True,1483,58,h,3,0.213129,18.180118
jeanmil,45,0,2024-03-03T15:50:04.119Z,male_vraiment_flat_197.wav,1,True,1483,58,h,4,0.284172,-30.775220
jeanmil,45,0,2024-03-03T15:50:04.119Z,male_vraiment_flat_197.wav,1,True,1483,58,h,5,0.355215,95.802549
jeanmil,45,0,2024-03-03T15:50:04.119Z,male_vraiment_flat_197.wav,1,True,1483,58,h,6,0.426259,-129.373786
jeanmil,46,0,2024-03-03T15:50:04.119Z,male_vraiment_flat_183.wav,0,True,2204,58,h,0,0.000000,102.527130
jeanmil,46,0,2024-03-03T15:50:04.119Z,male_vraiment_flat_183.wav,0,True,2204,58,h,1,0.071043,114.037020
jeanmil,46,0,2024-03-03T15:50:04.119Z,male_vraiment_flat_183.wav,0,True,2204,58,h,2,0.142086,-45.723055
jeanmil,46,0,2024-03-03T15:50:04.119Z,male_vraiment_flat_183.wav,0,True,2204,58,h,3,0.213129,-109.210749
jeanmil,46,0,2024-03-03T15:50:04.119Z,male_vraiment_flat_183.wav,0,True,2204,58,h,4,0.284172,-29.266312
jeanmil,46,0,2024-03-03T15:50:04.119Z,male_vraiment_flat_183.wav,0,True,2204,58,h,5,0.355215,-77.798514
jeanmil,46,0,2024-03-03T15:50:04.119Z,male_vraiment_flat_183.wav,0,True,2204,58,h,6,0.426259,-133.179439
jeanmil,46,0,2024-03-03T15:50:04.119Z,male_vraiment_flat_147.wav,1,False,2204,58,h,0,0.000000,-109.572708
jeanmil,46,0,2024-03-03T15:50:04.119Z,male_vraiment_flat_147.wav,1,False,2204,58,h,1,0.071043,-50.943910
jeanmil,46,0,2024-03-03T15:50:04.119Z,male_vraiment_flat_147.wav,1,False,2204,58,h,2,0.142086,145.950821
jeanmil,46,0,2024-03-03T15:50:04.119Z,male_vraiment_flat_147.wav,1,False,2204,58,h,3,0.213129,141.813801
jeanmil,46,0,2024-03-03T15:50:04.119Z,male_vraiment_flat_147.wav,1,False,2204,58,h,4,0.284172,53.597843
jeanmil,46,0,2024-03-03T15:50:04.119Z,male_vraiment_flat_147.wav,1,False,2204,58,h,5,0.355215,-21.310214
jeanmil,46,0,2024-03-03T15:50:04.119Z,male_vraiment_flat_147.wav,1,False,2204,58,h,6,0.426259,-94.477021
jeanmil,47,0,2024-03-03T15:50:04.119Z,male_vraiment_flat_44.wav,0,True,1707,58,h,0,0.000000,-41.207511
jeanmil,47,0,2024-03-03T15:50:04.119Z,male_vraiment_flat_44.wav,0,True,1707,58,h,1,0.071043,-36.343841
jeanmil,47,0,2024-03-03T15:50:04.119Z,male_vraiment_flat_44.wav,0,True,1707,58,h,2,0.142086,111.477084
jeanmil,47,0,2024-03-03T15:50:04.119Z,male_vraiment_flat_44.wav,0,True,1707,58,h,3,0.213129,5.942406
jeanmil,47,0,2024-03-03T15:50:04.119Z,male_vraiment_flat_44.wav,0,True,1707,58,h,4,0.284172,108.539673
jeanmil,47,0,2024-03-03T15:50:04.119Z,male_vraiment_flat_44.wav,0,True,1707,58,h,5,0.355215,-120.732661
jeanmil,47,0,2024-03-03T15:50:04.119Z,male_vraiment_flat_44.wav,0,True,1707,58,h,6,0.426259,-22.824839
jeanmil,47,0,2024-03-03T15:50:04.119Z,male_vraiment_flat_71.wav,1,False,1707,58,h,0,0.000000,98.558580
jeanmil,47,0,2024-03-03T15:50:04.119Z,male_vraiment_flat_71.wav,1,False,1707,58,h,1,0.071043,119.886109
jeanmil,47,0,2024-03-03T15:50:04.119Z,male_vraiment_flat_71.wav,1,False,1707,58,h,2,0.142086,-7.976954
jeanmil,47,0,2024-03-03T15:50:04.119Z,male_vraiment_flat_71.wav,1,False,1707,58,h,3,0.213129,7.397873
jeanmil,47,0,2024-03-03T15:50:04.119Z,male_vraiment_flat_71.wav,1,False,1707,58,h,4,0.284172,8.946833
jeanmil,47,0,2024-03-03T15:50:04.119Z,male_vraiment_flat_71.wav,1,False,1707,58,h,5,0.355215,-77.850016
jeanmil,47,0,2024-03-03T15:50:04.119Z,male_vraiment_flat_71.wav,1,False,1707,58,h,6,0.426259,-8.433981
jeanmil,48,0,2024-03-03T15:50:04.119Z,male_vraiment_flat_8.wav,0,True,3301,58,h,0,0.000000,88.027847
jeanmil,48,0,2024-03-03T15:50:04.119Z,male_vraiment_flat_8.wav,0,True,3301,58,h,1,0.071043,-108.976227
jeanmil,48,0,2024-03-03T15:50:04.119Z,male_vraiment_flat_8.wav,0,True,3301,58,h,2,0.142086,36.591048
jeanmil,48,0,2024-03-03T15:50:04.119Z,male_vraiment_flat_8.wav,0,True,3301,58,h,3,0.213129,7.260113
jeanmil,48,0,2024-03-03T15:50:04.119Z,male_vraiment_flat_8.wav,0,True,3301,58,h,4,0.284172,-133.690195
jeanmil,48,0,2024-03-03T15:50:04.119Z,male_vraiment_flat_8.wav,0,True,3301,58,h,5,0.355215,9.464811
jeanmil,48,0,2024-03-03T15:50:04.119Z,male_vraiment_flat_8.wav,0,True,3301,58,h,6,0.426259,-67.780032
jeanmil,48,0,2024-03-03T15:50:04.119Z,male_vraiment_flat_167.wav,1,False,3301,58,h,0,0.000000,-97.244470
jeanmil,48,0,2024-03-03T15:50:04.119Z,male_vraiment_flat_167.wav,1,False,3301,58,h,1,0.071043,55.519403
jeanmil,48,0,2024-03-03T15:50:04.119Z,male_vraiment_flat_167.wav,1,False,3301,58,h,2,0.142086,-125.285214
jeanmil,48,0,2024-03-03T15:50:04.119Z,male_vraiment_flat_167.wav,1,False,3301,58,h,3,0.213129,-87.843825
jeanmil,48,0,2024-03-03T15:50:04.119Z,male_vraiment_flat_167.wav,1,False,3301,58,h,4,0.284172,-127.750284
jeanmil,48,0,2024-03-03T15:50:04.119Z,male_vraiment_flat_167.wav,1,False,3301,58,h,5,0.355215,-93.631866
jeanmil,48,0,2024-03-03T15:50:04.119Z,male_vraiment_flat_167.wav,1,False,3301,58,h,6,0.426259,6.691804
jeanmil,49,0,2024-03-03T15:50:04.119Z,male_vraiment_flat_85.wav,0,False,1189,58,h,0,0.000000,16.220058
jeanmil,49,0,2024-03-03T15:50:04.119Z,male_vraiment_flat_85.wav,0,False,1189,58,h,1,0.071043,97.172848
jeanmil,49,0,2024-03-03T15:50:04.119Z,male_vraiment_flat_85.wav,0,False,1189,58,h,2,0.142086,121.919735
jeanmil,49,0,2024-03-03T15:50:04.119Z,male_vraiment_flat_85.wav,0,False,1189,58,h,3,0.213129,69.049273
jeanmil,49,0,2024-03-03T15:50:04.119Z,male_vraiment_flat_85.wav,0,False,1189,58,h,4,0.284172,124.256579
jeanmil,49,0,2024-03-03T15:50:04.119Z,male_vraiment_flat_85.wav,0,False,1189,58,h,5,0.355215,30.981006
jeanmil,49,0,2024-03-03T15:50:04.119Z,male_vraiment_flat_85.wav,0,False,1189,58,h,6,0.426259,-67.410158
jeanmil,49,0,2024-03-03T15:50:04.119Z,male_vraiment_flat_106.wav,1,True,1189,58,h,0,0.000000,13.442505
jeanmil,49,0,2024-03-03T15:50:04.119Z,male_vraiment_flat_106.wav,1,True,1189,58,h,1,0.071043,67.880832
jeanmil,49,0,2024-03-03T15:50:04.119Z,male_vraiment_flat_106.wav,1,True,1189,58,h,2,0.142086,105.927648
jeanmil,49,0,2024-03-03T15:50:04.119Z,male_vraiment_flat_106.wav,1,True,1189,58,h,3,0.213129,65.041696
jeanmil,49,0,2024-03-03T15:50:04.119Z,male_vraiment_flat_106.wav,1,True,1189,58,h,4,0.284172,-59.466654
jeanmil,49,0,2024-03-03T15:50:04.119Z,male_vraiment_flat_106.wav,1,True,1189,58,h,5,0.355215,55.710963
jeanmil,49,0,2024-03-03T15:50:04.119Z,male_vraiment_flat_106.wav,1,True,1189,58,h,6,0.426259,127.964857
jeanmil,50,1,2024-03-03T15:50:04.119Z,male_vraiment_flat_5.wav,0,False,1304,58,h,0,0.000000,88.556797
jeanmil,50,1,2024-03-03T15:50:04.119Z,male_vraiment_flat_5.wav,0,False,1304,58,h,1,0.071043,120.959384
jeanmil,50,1,2024-03-03T15:50:04.119Z,male_vraiment_flat_5.wav,0,False,1304,58,h,2,0.142086,-116.065822
jeanmil,50,1,2024-03-03T15:50:04.119Z,male_vraiment_flat_5.wav,0,False,1304,58,h,3,0.213129,130.464712
jeanmil,50,1,2024-03-03T15:50:04.119Z,male_vraiment_flat_5.wav,0,False,1304,58,h,4,0.284172,88.167919
jeanmil,50,1,2024-03-03T15:50:04.119Z,male_vraiment_flat_5.wav,0,False,1304,58,h,5,0.355215,75.417329
jeanmil,50,1,2024-03-03T15:50:04.119Z,male_vraiment_flat_5.wav,0,False,1304,58,h,6,0.426259,65.499211
jeanmil,50,1,2024-03-03T15:50:04.119Z,male_vraiment_flat_80.wav,1,True,1304,58,h,0,0.000000,74.549472
jeanmil,50,1,2024-03-03T15:50:04.119Z,male_vraiment_flat_80.wav,1,True,1304,58,h,1,0.071043,28.548945
jeanmil,50,1,2024-03-03T15:50:04.119Z,male_vraiment_flat_80.wav,1,True,1304,58,h,2,0.142086,-70.639605
jeanmil,50,1,2024-03-03T15:50:04.119Z,male_vraiment_flat_80.wav,1,True,1304,58,h,3,0.213129,105.678511
jeanmil,50,1,2024-03-03T15:50:04.119Z,male_vraiment_flat_80.wav,1,True,1304,58,h,4,0.284172,54.429698
jeanmil,50,1,2024-03-03T15:50:04.119Z,male_vraiment_flat_80.wav,1,True,1304,58,h,5,0.355215,38.972413
jeanmil,50,1,2024-03-03T15:50:04.119Z,male_vraiment_flat_80.wav,1,True,1304,58,h,6,0.426259,36.313071
jeanmil,51,1,2024-03-03T15:50:04.119Z,male_vraiment_flat_109.wav,0,False,906,58,h,0,0.000000,47.448278
jeanmil,51,1,2024-03-03T15:50:04.119Z,male_vraiment_flat_109.wav,0,False,906,58,h,1,0.071043,97.426800
jeanmil,51,1,2024-03-03T15:50:04.119Z,male_vraiment_flat_109.wav,0,False,906,58,h,2,0.142086,-100.706472
jeanmil,51,1,2024-03-03T15:50:04.119Z,male_vraiment_flat_109.wav,0,False,906,58,h,3,0.213129,-21.542212
jeanmil,51,1,2024-03-03T15:50:04.119Z,male_vraiment_flat_109.wav,0,False,906,58,h,4,0.284172,-35.096541
jeanmil,51,1,2024-03-03T15:50:04.119Z,male_vraiment_flat_109.wav,0,False,906,58,h,5,0.355215,33.270062
jeanmil,51,1,2024-03-03T15:50:04.119Z,male_vraiment_flat_109.wav,0,False,906,58,h,6,0.426259,35.804127
jeanmil,51,1,2024-03-03T15:50:04.119Z,male_vraiment_flat_48.wav,1,True,906,58,h,0,0.000000,90.503303
jeanmil,51,1,2024-03-03T15:50:04.119Z,male_vraiment_flat_48.wav,1,True,906,58,h,1,0.071043,6.970948
jeanmil,51,1,2024-03-03T15:50:04.119Z,male_vraiment_flat_48.wav,1,True,906,58,h,2,0.142086,67.030496
jeanmil,51,1,2024-03-03T15:50:04.119Z,male_vraiment_flat_48.wav,1,True,906,58,h,3,0.213129,131.765290
jeanmil,51,1,2024-03-03T15:50:04.119Z,male_vraiment_flat_48.wav,1,True,906,58,h,4,0.284172,144.593501
jeanmil,51,1,2024-03-03T15:50:04.119Z,male_vraiment_flat_48.wav,1,True,906,58,h,5,0.355215,16.017944
jeanmil,51,1,2024-03-03T15:50:04.119Z,male_vraiment_flat_48.wav,1,True,906,58,h,6,0.426259,-146.021483
jeanmil,52,1,2024-03-03T15:50:04.119Z,male_vraiment_flat_172.wav,0,True,2093,58,h,0,0.000000,-63.308139
jeanmil,52,1,2024-03-03T15:50:04.119Z,male_vraiment_flat_172.wav,0,True,2093,58,h,1,0.071043,-111.693367
jeanmil,52,1,2024-03-03T15:50:04.119Z,male_vraiment_flat_172.wav,0,True,2093,58,h,2,0.142086,-61.444624
jeanmil,52,1,2024-03-03T15:50:04.119Z,male_vraiment_flat_172.wav,0,True,2093,58,h,3,0.213129,137.201589
jeanmil,52,1,2024-03-03T15:50:04.119Z,male_vraiment_flat_172.wav,0,True,2093,58,h,4,0.284172,-132.973462
jeanmil,52,1,2024-03-03T15:50:04.119Z,male_vraiment_flat_172.wav,0,True,2093,58,h,5,0.355215,-126.405577
jeanmil,52,1,2024-03-03T15:50:04.119Z,male_vraiment_flat_172.wav,0,True,2093,58,h,6,0.426259,-119.840486
jeanmil,52,1,2024-03-03T15:50:04.119Z,male_vraiment_flat_41.wav,1,False,2093,58,h,0,0.000000,-40.071689
jeanmil,52,1,2024-03-03T15:50:04.119Z,male_vraiment_flat_41.wav,1,False,2093,58,h,1,0.071043,-31.963638
jeanmil,52,1,2024-03-03T15:50:04.119Z,male_vraiment_flat_41.wav,1,False,2093,58,h,2,0.142086,-69.463296
jeanmil,52,1,2024-03-03T15:50:04.119Z,male_vraiment_flat_41.wav,1,False,2093,58,h,3,0.213129,-118.841278
jeanmil,52,1,2024-03-03T15:50:04.119Z,male_vraiment_flat_41.wav,1,False,2093,58,h,4,0.284172,80.615651
jeanmil,52,1,2024-03-03T15:50:04.119Z,male_vraiment_flat_41.wav,1,False,2093,58,h,5,0.355215,-132.443518
jeanmil,52,1,2024-03-03T15:50:04.119Z,male_vraiment_flat_41.wav,1,False,2093,58,h,6,0.426259,21.803113
jeanmil,53,1,2024-03-03T15:50:04.119Z,male_vraiment_flat_170.wav,0,True,1459,58,h,0,0.000000,88.489327
jeanmil,53,1,2024-03-03T15:50:04.119Z,male_vraiment_flat_170.wav,0,True,1459,58,h,1,0.071043,-76.759591
jeanmil,53,1,2024-03-03T15:50:04.119Z,male_vraiment_flat_170.wav,0,True,1459,58,h,2,0.142086,131.535458
jeanmil,53,1,2024-03-03T15:50:04.119Z,male_vraiment_flat_170.wav,0,True,1459,58,h,3,0.213129,-66.304272
jeanmil,53,1,2024-03-03T15:50:04.119Z,male_vraiment_flat_170.wav,0,True,1459,58,h,4,0.284172,82.842237
jeanmil,53,1,2024-03-03T15:50:04.119Z,male_vraiment_flat_170.wav,0,True,1459,58,h,5,0.355215,39.682087
jeanmil,53,1,2024-03-03T15:50:04.119Z,male_vraiment_flat_170.wav,0,True,1459,58,h,6,0.426259,-39.313076
jeanmil,53,1,2024-03-03T15:50:04.119Z,male_vraiment_flat_199.wav,1,False,1459,58,h,0,0.000000,-30.664010
jeanmil,53,1,2024-03-03T15:50:04.119Z,male_vraiment_flat_199.wav,1,False,1459,58,h,1,0.071043,2.060872
jeanmil,53,1,2024-03-03T15:50:04.119Z,male_vraiment_flat_199.wav,1,False,1459,58,h,2,0.142086,-136.256691
jeanmil,53,1,2024-03-03T15:50:04.119Z,male_vraiment_flat_199.wav,1,False,1459,58,h,3,0.213129,20.654546
jeanmil,53,1,2024-03-03T15:50:04.119Z,male_vraiment_flat_199.wav,1,False,1459,58,h,4,0.284172,41.179386
jeanmil,53,1,2024-03-03T15:50:04.119Z,male_vraiment_flat_199.wav,1,False,1459,58,h,5,0.355215,1.343346
jeanmil,53,1,2024-03-03T15:50:04.119Z,male_vraiment_flat_199.wav,1,False,1459,58,h,6,0.426259,140.228288
jeanmil,54,1,2024-03-03T15:50:04.119Z,male_vraiment_flat_196.wav,0,True,1004,58,h,0,0.000000,-42.342747
jeanmil,54,1,2024-03-03T15:50:04.119Z,male_vraiment_flat_196.wav,0,True,1004,58,h,1,0.071043,-81.868734
jeanmil,54,1,2024-03-03T15:50:04.119Z,male_vraiment_flat_196.wav,0,True,1004,58,h,2,0.142086,-18.906552
jeanmil,54,1,2024-03-03T15:50:04.119Z,male_vraiment_flat_196.wav,0,True,1004,58,h,3,0.213129,-18.852092
jeanmil,54,1,2024-03-03T15:50:04.119Z,male_vraiment_flat_196.wav,0,True,1004,58,h,4,0.284172,52.116670
jeanmil,54,1,2024-03-03T15:50:04.119Z,male_vraiment_flat_196.wav,0,True,1004,58,h,5,0.355215,90.577409
jeanmil,54,1,2024-03-03T15:50:04.119Z,male_vraiment_flat_196.wav,0,True,1004,58,h,6,0.426259,29.772760
jeanmil,54,1,2024-03-03T15:50:04.119Z,male_vraiment_flat_26.wav,1,False,1004,58,h,0,0.000000,-135.344658
jeanmil,54,1,2024-03-03T15:50:04.119Z,male_vraiment_flat_26.wav,1,False,1004,58,h,1,0.071043,-76.172858
jeanmil,54,1,2024-03-03T15:50:04.119Z,male_vraiment_flat_26.wav,1,False,1004,58,h,2,0.142086,-130.999312
jeanmil,54,1,2024-03-03T15:50:04.119Z,male_vraiment_flat_26.wav,1,False,1004,58,h,3,0.213129,-146.306144
jeanmil,54,1,2024-03-03T15:50:04.119Z,male_vraiment_flat_26.wav,1,False,1004,58,h,4,0.284172,-78.266251
jeanmil,54,1,2024-03-03T15:50:04.119Z,male_vraiment_flat_26.wav,1,False,1004,58,h,5,0.355215,30.254136
jeanmil,54,1,2024-03-03T15:50:04.119Z,male_vraiment_flat_26.wav,1,False,1004,58,h,6,0.426259,-114.179281
jeanmil,55,1,2024-03-03T15:50:04.119Z,male_vraiment_flat_103.wav,0,False,2115,58,h,0,0.000000,107.674069
jeanmil,55,1,2024-03-03T15:50:04.119Z,male_vraiment_flat_103.wav,0,False,2115,58,h,1,0.071043,149.413476
jeanmil,55,1,2024-03-03T15:50:04.119Z,male_vraiment_flat_103.wav,0,False,2115,58,h,2,0.142086,-1.049319
jeanmil,55,1,2024-03-03T15:50:04.119Z,male_vraiment_flat_103.wav,0,False,2115,58,h,3,0.213129,-7.353867
jeanmil,55,1,2024-03-03T15:50:04.119Z,male_vraiment_flat_103.wav,0,False,2115,58,h,4,0.284172,-2.169492
jeanmil,55,1,2024-03-03T15:50:04.119Z,male_vraiment_flat_103.wav,0,False,2115,58,h,5,0.355215,-94.854916
jeanmil,55,1,2024-03-03T15:50:04.119Z,male_vraiment_flat_103.wav,0,False,2115,58,h,6,0.426259,119.487430
jeanmil,55,1,2024-03-03T15:50:04.119Z,male_vraiment_flat_107.wav,1,True,2115,58,h,0,0.000000,147.824484
jeanmil,55,1,2024-03-03T15:50:04.119Z,male_vraiment_flat_107.wav,1,True,2115,58,h,1,0.071043,-35.753560
jeanmil,55,1,2024-03-03T15:50:04.119Z,male_vraiment_flat_107.wav,1,True,2115,58,h,2,0.142086,-17.671801
jeanmil,55,1,2024-03-03T15:50:04.119Z,male_vraiment_flat_107.wav,1,True,2115,58,h,3,0.213129,145.037411
jeanmil,55,1,2024-03-03T15:50:04.119Z,male_vraiment_flat_107.wav,1,True,2115,58,h,4,0.284172,17.430899
jeanmil,55,1,2024-03-03T15:50:04.119Z,male_vraiment_flat_107.wav,1,True,2115,58,h,5,0.355215,-34.827913
jeanmil,55,1,2024-03-03T15:50:04.119Z,male_vraiment_flat_107.wav,1,True,2115,58,h,6,0.426259,-148.430397
jeanmil,56,1,2024-03-03T15:50:04.119Z,male_vraiment_flat_189.wav,0,False,1868,58,h,0,0.000000,53.448621
jeanmil,56,1,2024-03-03T15:50:04.119Z,male_vraiment_flat_189.wav,0,False,1868,58,h,1,0.071043,82.292801
jeanmil,56,1,2024-03-03T15:50:04.119Z,male_vraiment_flat_189.wav,0,False,1868,58,h,2,0.142086,-89.509706
jeanmil,56,1,2024-03-03T15:50:04.119Z,male_vraiment_flat_189.wav,0,False,1868,58,h,3,0.213129,61.203077
jeanmil,56,1,2024-03-03T15:50:04.119Z,male_vraiment_flat_189.wav,0,False,1868,58,h,4,0.284172,-64.080431
jeanmil,56,1,2024-03-03T15:50:04.119Z,male_vraiment_flat_189.wav,0,False,1868,58,h,5,0.355215,71.408242
jeanmil,56,1,2024-03-03T15:50:04.119Z,male_vraiment_flat_189.wav,0,False,1868,58,h,6,0.426259,-96.299976
jeanmil,56,1,2024-03-03T15:50:04.119Z,male_vraiment_flat_14.wav,1,True,1868,58,h,0,0.000000,-139.491371
jeanmil,56,1,2024-03-03T15:50:04.119Z,male_vraiment_flat_14.wav,1,True,1868,58,h,1,0.071043,-89.621492
jeanmil,56,1,2024-03-03T15:50:04.119Z,male_vraiment_flat_14.wav,1,True,1868,58,h,2,0.142086,-85.009614
jeanmil,56,1,2024-03-03T15:50:04.119Z,male_vraiment_flat_14.wav,1,True,1868,58,h,3,0.213129,-29.902058
jeanmil,56,1,2024-03-03T15:50:04.119Z,male_vraiment_flat_14.wav,1,True,1868,58,h,4,0.284172,-86.665261
jeanmil,56,1,2024-03-03T15:50:04.119Z,male_vraiment_flat_14.wav,1,True,1868,58,h,5,0.355215,27.459037
jeanmil,56,1,2024-03-03T15:50:04.119Z,male_vraiment_flat_14.wav,1,True,1868,58,h,6,0.426259,33.245669
jeanmil,57,1,2024-03-03T15:50:04.119Z,male_vraiment_flat_1.wav,0,False,1038,58,h,0,0.000000,-87.527114
jeanmil,57,1,2024-03-03T15:50:04.119Z,male_vraiment_flat_1.wav,0,False,1038,58,h,1,0.071043,-24.885537
jeanmil,57,1,2024-03-03T15:50:04.119Z,male_vraiment_flat_1.wav,0,False,1038,58,h,2,0.142086,25.492299
jeanmil,57,1,2024-03-03T15:50:04.119Z,male_vraiment_flat_1.wav,0,False,1038,58,h,3,0.213129,-85.109295
jeanmil,57,1,2024-03-03T15:50:04.119Z,male_vraiment_flat_1.wav,0,False,1038,58,h,4,0.284172,41.982644
jeanmil,57,1,2024-03-03T15:50:04.119Z,male_vraiment_flat_1.wav,0,False,1038,58,h,5,0.355215,-147.448489
jeanmil,57,1,2024-03-03T15:50:04.119Z,male_vraiment_flat_1.wav,0,False,1038,58,h,6,0.426259,3.412386
jeanmil,57,1,2024-03-03T15:50:04.119Z,male_vraiment_flat_137.wav,1,True,1038,58,h,0,0.000000,80.130674
jeanmil,57,1,2024-03-03T15:50:04.119Z,male_vraiment_flat_137.wav,1,True,1038,58,h,1,0.071043,138.574149
jeanmil,57,1,2024-03-03T15:50:04.119Z,male_vraiment_flat_137.wav,1,True,1038,58,h,2,0.142086,75.493630
jeanmil,57,1,2024-03-03T15:50:04.119Z,male_vraiment_flat_137.wav,1,True,1038,58,h,3,0.213129,-91.745449
jeanmil,57,1,2024-03-03T15:50:04.119Z,male_vraiment_flat_137.wav,1,True,1038,58,h,4,0.284172,67.674634
jeanmil,57,1,2024-03-03T15:50:04.119Z,male_vraiment_flat_137.wav,1,True,1038,58,h,5,0.355215,136.412365
jeanmil,57,1,2024-03-03T15:50:04.119Z,male_vraiment_flat_137.wav,1,True,1038,58,h,6,0.426259,13.296001
jeanmil,58,1,2024-03-03T15:50:04.119Z,male_vraiment_flat_190.wav,0,True,1389,58,h,0,0.000000,-135.472764
jeanmil,58,1,2024-03-03T15:50:04.119Z,male_vraiment_flat_190.wav,0,True,1389,58,h,1,0.071043,-16.311165
jeanmil,58,1,2024-03-03T15:50:04.119Z,male_vraiment_flat_190.wav,0,True,1389,58,h,2,0.142086,-108.166759
jeanmil,58,1,2024-03-03T15:50:04.119Z,male_vraiment_flat_190.wav,0,True,1389,58,h,3,0.213129,-73.778410
jeanmil,58,1,2024-03-03T15:50:04.119Z,male_vraiment_flat_190.wav,0,True,1389,58,h,4,0.284172,-109.839915
jeanmil,58,1,2024-03-03T15:50:04.119Z,male_vraiment_flat_190.wav,0,True,1389,58,h,5,0.355215,2.895785
jeanmil,58,1,2024-03-03T15:50:04.119Z,male_vraiment_flat_190.wav,0,True,1389,58,h,6,0.426259,14.515822
jeanmil,58,1,2024-03-03T15:50:04.119Z,male_vraiment_flat_2.wav,1,False,1389,58,h,0,0.000000,-26.280713
jeanmil,58,1,2024-03-03T15:50:04.119Z,male_vraiment_flat_2.wav,1,False,1389,58,h,1,0.071043,83.932106
jeanmil,58,1,2024-03-03T15:50:04.119Z,male_vraiment_flat_2.wav,1,False,1389,58,h,2,0.142086,59.369452
jeanmil,58,1,2024-03-03T15:50:04.119Z,male_vraiment_flat_2.wav,1,False,1389,58,h,3,0.213129,8.881156
jeanmil,58,1,2024-03-03T15:50:04.119Z,male_vraiment_flat_2.wav,1,False,1389,58,h,4,0.284172,3.498385
jeanmil,58,1,2024-03-03T15:50:04.119Z,male_vraiment_flat_2.wav,1,False,1389,58,h,5,0.355215,-133.430007
jeanmil,58,1,2024-03-03T15:50:04.119Z,male_vraiment_flat_2.wav,1,False,1389,58,h,6,0.426259,94.606197
jeanmil,59,1,2024-03-03T15:50:04.119Z,male_vraiment_flat_83.wav,0,False,1723,58,h,0,0.000000,-23.907946
jeanmil,59,1,2024-03-03T15:50:04.119Z,male_vraiment_flat_83.wav,0,False,1723,58,h,1,0.071043,-0.791729
jeanmil,59,1,2024-03-03T15:50:04.119Z,male_vraiment_flat_83.wav,0,False,1723,58,h,2,0.142086,23.610634
jeanmil,59,1,2024-03-03T15:50:04.119Z,male_vraiment_flat_83.wav,0,False,1723,58,h,3,0.213129,-35.411923
jeanmil,59,1,2024-03-03T15:50:04.119Z,male_vraiment_flat_83.wav,0,False,1723,58,h,4,0.284172,101.109402
jeanmil,59,1,2024-03-03T15:50:04.119Z,male_vraiment_flat_83.wav,0,False,1723,58,h,5,0.355215,-51.929212
jeanmil,59,1,2024-03-03T15:50:04.119Z,male_vraiment_flat_83.wav,0,False,1723,58,h,6,0.426259,-104.958378
jeanmil,59,1,2024-03-03T15:50:04.119Z,male_vraiment_flat_101.wav,1,True,1723,58,h,0,0.000000,69.316576
jeanmil,59,1,2024-03-03T15:50:04.119Z,male_vraiment_flat_101.wav,1,True,1723,58,h,1,0.071043,-9.395360
jeanmil,59,1,2024-03-03T15:50:04.119Z,male_vraiment_flat_101.wav,1,True,1723,58,h,2,0.142086,-16.210020
jeanmil,59,1,2024-03-03T15:50:04.119Z,male_vraiment_flat_101.wav,1,True,1723,58,h,3,0.213129,5.282415
jeanmil,59,1,2024-03-03T15:50:04.119Z,male_vraiment_flat_101.wav,1,True,1723,58,h,4,0.284172,-92.031474
jeanmil,59,1,2024-03-03T15:50:04.119Z,male_vraiment_flat_101.wav,1,True,1723,58,h,5,0.355215,-71.382142
jeanmil,59,1,2024-03-03T15:50:04.119Z,male_vraiment_flat_101.wav,1,True,1723,58,h,6,0.426259,-144.168558
jeanmil,60,1,2024-03-03T15:50:04.119Z,male_vraiment_flat_13.wav,0,False,2380,58,h,0,0.000000,-66.984077
jeanmil,60,1,2024-03-03T15:50:04.119Z,male_vraiment_flat_13.wav,0,False,2380,58,h,1,0.071043,5.429279
jeanmil,60,1,2024-03-03T15:50:04.119Z,male_vraiment_flat_13.wav,0,False,2380,58,h,2,0.142086,12.572717
jeanmil,60,1,2024-03-03T15:50:04.119Z,male_vraiment_flat_13.wav,0,False,2380,58,h,3,0.213129,-71.562953
jeanmil,60,1,2024-03-03T15:50:04.119Z,male_vraiment_flat_13.wav,0,False,2380,58,h,4,0.284172,-107.999901
jeanmil,60,1,2024-03-03T15:50:04.119Z,male_vraiment_flat_13.wav,0,False,2380,58,h,5,0.355215,86.606735
jeanmil,60,1,2024-03-03T15:50:04.119Z,male_vraiment_flat_13.wav,0,False,2380,58,h,6,0.426259,-82.122177
jeanmil,60,1,2024-03-03T15:50:04.119Z,male_vraiment_flat_95.wav,1,True,2380,58,h,0,0.000000,144.813706
jeanmil,60,1,2024-03-03T15:50:04.119Z,male_vraiment_flat_95.wav,1,True,2380,58,h,1,0.071043,36.420023
jeanmil,60,1,2024-03-03T15:50:04.119Z,male_vraiment_flat_95.wav,1,True,2380,58,h,2,0.142086,-15.581887
jeanmil,60,1,2024-03-03T15:50:04.119Z,male_vraiment_flat_95.wav,1,True,2380,58,h,3,0.213129,-108.080315
jeanmil,60,1,2024-03-03T15:50:04.119Z,male_vraiment_flat_95.wav,1,True,2380,58,h,4,0.284172,44.827040
jeanmil,60,1,2024-03-03T15:50:04.119Z,male_vraiment_flat_95.wav,1,True,2380,58,h,5,0.355215,-140.857646
jeanmil,60,1,2024-03-03T15:50:04.119Z,male_vraiment_flat_95.wav,1,True,2380,58,h,6,0.426259,-19.601185
jeanmil,61,1,2024-03-03T15:50:04.119Z,male_vraiment_flat_151.wav,0,False,1149,58,h,0,0.000000,-67.748525
jeanmil,61,1,2024-03-03T15:50:04.119Z,male_vraiment_flat_151.wav,0,False,1149,58,h,1,0.071043,54.361913
jeanmil,61,1,2024-03-03T15:50:04.119Z,male_vraiment_flat_151.wav,0,False,1149,58,h,2,0.142086,-48.392138
jeanmil,61,1,2024-03-03T15:50:04.119Z,male_vraiment_flat_151.wav,0,False,1149,58,h,3,0.213129,35.257299
jeanmil,61,1,2024-03-03T15:50:04.119Z,male_vraiment_flat_151.wav,0,False,1149,58,h,4,0.284172,30.428121
jeanmil,61,1,2024-03-03T15:50:04.119Z,male_vraiment_flat_151.wav,0,False,1149,58,h,5,0.355215,28.910983
jeanmil,61,1,2024-03-03T15:50:04.119Z,male_vraiment_flat_151.wav,0,False,1149,58,h,6,0.426259,-22.593444
jeanmil,61,1,2024-03-03T15:50:04.119Z,male_vraiment_flat_175.wav,1,True,1149,58,h,0,0.000000,-48.933192
jeanmil,61,1,2024-03-03T15:50:04.119Z,male_vraiment_flat_175.wav,1,True,1149,58,h,1,0.071043,23.459372
jeanmil,61,1,2024-03-03T15:50:04.119Z,male_vraiment_flat_175.wav,1,True,1149,58,h,2,0.142086,-82.944560
jeanmil,61,1,2024-03-03T15:50:04.119Z,male_vraiment_flat_175.wav,1,True,1149,58,h,3,0.213129,-41.749231
jeanmil,61,1,2024-03-03T15:50:04.119Z,male_vraiment_flat_175.wav,1,True,1149,58,h,4,0.284172,4.976289
jeanmil,61,1,2024-03-03T15:50:04.119Z,male_vraiment_flat_175.wav,1,True,1149,58,h,5,0.355215,52.438424
jeanmil,61,1,2024-03-03T15:50:04.119Z,male_vraiment_flat_175.wav,1,True,1149,58,h,6,0.426259,-117.325248
jeanmil,62,1,2024-03-03T15:50:04.119Z,male_vraiment_flat_126.wav,0,False,1284,58,h,0,0.000000,23.450520
jeanmil,62,1,2024-03-03T15:50:04.119Z,male_vraiment_flat_126.wav,0,False,1284,58,h,1,0.071043,102.584681
jeanmil,62,1,2024-03-03T15:50:04.119Z,male_vraiment_flat_126.wav,0,False,1284,58,h,2,0.142086,38.224300
jeanmil,62,1,2024-03-03T15:50:04.119Z,male_vraiment_flat_126.wav,0,False,1284,58,h,3,0.213129,-16.427695
jeanmil,62,1,2024-03-03T15:50:04.119Z,male_vraiment_flat_126.wav,0,False,1284,58,h,4,0.284172,7.421137
jeanmil,62,1,2024-03-03T15:50:04.119Z,male_vraiment_flat_126.wav,0,False,1284,58,h,5,0.355215,-9.369055
jeanmil,62,1,2024-03-03T15:50:04.119Z,male_vraiment_flat_126.wav,0,False,1284,58,h,6,0.426259,-89.176758
jeanmil,62,1,2024-03-03T15:50:04.119Z,male_vraiment_flat_30.wav,1,True,1284,58,h,0,0.000000,32.600333
jeanmil,62,1,2024-03-03T15:50:04.119Z,male_vraiment_flat_30.wav,1,True,1284,58,h,1,0.071043,42.125884
jeanmil,62,1,2024-03-03T15:50:04.119Z,male_vraiment_flat_30.wav,1,True,1284,58,h,2,0.142086,124.172285
jeanmil,62,1,2024-03-03T15:50:04.119Z,male_vraiment_flat_30.wav,1,True,1284,58,h,3,0.213129,52.679052
jeanmil,62,1,2024-03-03T15:50:04.119Z,male_vraiment_flat_30.wav,1,True,1284,58,h,4,0.284172,-111.889461
jeanmil,62,1,2024-03-03T15:50:04.119Z,male_vraiment_flat_30.wav,1,True,1284,58,h,5,0.355215,64.478579
jeanmil,62,1,2024-03-03T15:50:04.119Z,male_vraiment_flat_30.wav,1,True,1284,58,h,6,0.426259,22.023880
jeanmil,63,1,2024-03-03T15:50:04.119Z,male_vraiment_flat_19.wav,0,False,2455,58,h,0,0.000000,-23.596543
jeanmil,63,1,2024-03-03T15:50:04.119Z,male_vraiment_flat_19.wav,0,False,2455,58,h,1,0.071043,-71.824414
jeanmil,63,1,2024-03-03T15:50:04.119Z,male_vraiment_flat_19.wav,0,False,2455,58,h,2,0.142086,88.506579
jeanmil,63,1,2024-03-03T15:50:04.119Z,male_vraiment_flat_19.wav,0,False,2455,58,h,3,0.213129,-79.935804
jeanmil,63,1,2024-03-03T15:50:04.119Z,male_vraiment_flat_19.wav,0,False,2455,58,h,4,0.284172,97.974212
jeanmil,63,1,2024-03-03T15:50:04.119Z,male_vraiment_flat_19.wav,0,False,2455,58,h,5,0.355215,-89.439384
jeanmil,63,1,2024-03-03T15:50:04.119Z,male_vraiment_flat_19.wav,0,False,2455,58,h,6,0.426259,-131.198163
jeanmil,63,1,2024-03-03T15:50:04.119Z,male_vraiment_flat_66.wav,1,True,2455,58,h,0,0.000000,96.429433
jeanmil,63,1,2024-03-03T15:50:04.119Z,male_vraiment_flat_66.wav,1,True,2455,58,h,1,0.071043,13.373052
jeanmil,63,1,2024-03-03T15:50:04.119Z,male_vraiment_flat_66.wav,1,True,2455,58,h,2,0.142086,112.602816
jeanmil,63,1,2024-03-03T15:50:04.119Z,male_vraiment_flat_66.wav,1,True,2455,58,h,3,0.213129,110.292573
jeanmil,63,1,2024-03-03T15:50:04.119Z,male_vraiment_flat_66.wav,1,True,2455,58,h,4,0.284172,-89.729138
jeanmil,63,1,2024-03-03T15:50:04.119Z,male_vraiment_flat_66.wav,1,True,2455,58,h,5,0.355215,-67.456514
jeanmil,63,1,2024-03-03T15:50:04.119Z,male_vraiment_flat_66.wav,1,True,2455,58,h,6,0.426259,79.997172
jeanmil,64,1,2024-03-03T15:50:04.119Z,male_vraiment_flat_161.wav,0,False,3373,58,h,0,0.000000,108.108554
jeanmil,64,1,2024-03-03T15:50:04.119Z,male_vraiment_flat_161.wav,0,False,3373,58,h,1,0.071043,47.804173
jeanmil,64,1,2024-03-03T15:50:04.119Z,male_vraiment_flat_161.wav,0,False,3373,58,h,2,0.142086,-38.721105
jeanmil,64,1,2024-03-03T15:50:04.119Z,male_vraiment_flat_161.wav,0,False,3373,58,h,3,0.213129,108.595174
jeanmil,64,1,2024-03-03T15:50:04.119Z,male_vraiment_flat_161.wav,0,False,3373,58,h,4,0.284172,94.751032
jeanmil,64,1,2024-03-03T15:50:04.119Z,male_vraiment_flat_161.wav,0,False,3373,58,h,5,0.355215,-22.399732
jeanmil,64,1,2024-03-03T15:50:04.119Z,male_vraiment_flat_161.wav,0,False,3373,58,h,6,0.426259,88.139884
jeanmil,64,1,2024-03-03T15:50:04.119Z,male_vraiment_flat_155.wav,1,True,3373,58,h,0,0.000000,-140.284917
jeanmil,64,1,2024-03-03T15:50:04.119Z,male_vraiment_flat_155.wav,1,True,3373,58,h,1,0.071043,56.043903
jeanmil,64,1,2024-03-03T15:50:04.119Z,male_vraiment_flat_155.wav,1,True,3373,58,h,2,0.142086,-2.142699
jeanmil,64,1,2024-03-03T15:50:04.119Z,male_vraiment_flat_155.wav,1,True,3373,58,h,3,0.213129,-41.999388
jeanmil,64,1,2024-03-03T15:50:04.119Z,male_vraiment_flat_155.wav,1,True,3373,58,h,4,0.284172,-69.522618
jeanmil,64,1,2024-03-03T15:50:04.119Z,male_vraiment_flat_155.wav,1,True,3373,58,h,5,0.355215,29.697532
jeanmil,64,1,2024-03-03T15:50:04.119Z,male_vraiment_flat_155.wav,1,True,3373,58,h,6,0.426259,40.565741
jeanmil,65,1,2024-03-03T15:50:04.119Z,male_vraiment_flat_29.wav,0,True,2156,58,h,0,0.000000,78.626852
jeanmil,65,1,2024-03-03T15:50:04.119Z,male_vraiment_flat_29.wav,0,True,2156,58,h,1,0.071043,124.163952
jeanmil,65,1,2024-03-03T15:50:04.119Z,male_vraiment_flat_29.wav,0,True,2156,58,h,2,0.142086,-62.289103
jeanmil,65,1,2024-03-03T15:50:04.119Z,male_vraiment_flat_29.wav,0,True,2156,58,h,3,0.213129,54.806982
jeanmil,65,1,2024-03-03T15:50:04.119Z,male_vraiment_flat_29.wav,0,True,2156,58,h,4,0.284172,75.809549
jeanmil,65,1,2024-03-03T15:50:04.119Z,male_vraiment_flat_29.wav,0,True,2156,58,h,5,0.355215,87.233703
jeanmil,65,1,2024-03-03T15:50:04.119Z,male_vraiment_flat_29.wav,0,True,2156,58,h,6,0.426259,-95.916715
jeanmil,65,1,2024-03-03T15:50:04.119Z,male_vraiment_flat_65.wav,1,False,2156,58,h,0,0.000000,104.278510
jeanmil,65,1,2024-03-03T15:50:04.119Z,male_vraiment_flat_65.wav,1,False,2156,58,h,1,0.071043,120.742750
jeanmil,65,1,2024-03-03T15:50:04.119Z,male_vraiment_flat_65.wav,1,False,2156,58,h,2,0.142086,116.963717
jeanmil,65,1,2024-03-03T15:50:04.119Z,male_vraiment_flat_65.wav,1,False,2156,58,h,3,0.213129,-30.167489
jeanmil,65,1,2024-03-03T15:50:04.119Z,male_vraiment_flat_65.wav,1,False,2156,58,h,4,0.284172,58.482575
jeanmil,65,1,2024-03-03T15:50:04.119Z,male_vraiment_flat_65.wav,1,False,2156,58,h,5,0.355215,-35.240720
jeanmil,65,1,2024-03-03T15:50:04.119Z,male_vraiment_flat_65.wav,1,False,2156,58,h,6,0.426259,-49.851341
jeanmil,66,1,2024-03-03T15:50:04.119Z,male_vraiment_flat_53.wav,0,True,1181,58,h,0,0.000000,12.794375
jeanmil,66,1,2024-03-03T15:50:04.119Z,male_vraiment_flat_53.wav,0,True,1181,58,h,1,0.071043,72.488609
jeanmil,66,1,2024-03-03T15:50:04.119Z,male_vraiment_flat_53.wav,0,True,1181,58,h,2,0.142086,82.753367
jeanmil,66,1,2024-03-03T15:50:04.119Z,male_vraiment_flat_53.wav,0,True,1181,58,h,3,0.213129,-11.724600
jeanmil,66,1,2024-03-03T15:50:04.119Z,male_vraiment_flat_53.wav,0,True,1181,58,h,4,0.284172,8.499299
jeanmil,66,1,2024-03-03T15:50:04.119Z,male_vraiment_flat_53.wav,0,True,1181,58,h,5,0.355215,84.468722
jeanmil,66,1,2024-03-03T15:50:04.119Z,male_vraiment_flat_53.wav,0,True,1181,58,h,6,0.426259,-88.580062
jeanmil,66,1,2024-03-03T15:50:04.119Z,male_vraiment_flat_188.wav,1,False,1181,58,h,0,0.000000,-11.484944
jeanmil,66,1,2024-03-03T15:50:04.119Z,male_vraiment_flat_188.wav,1,False,1181,58,h,1,0.071043,-70.368872
jeanmil,66,1,2024-03-03T15:50:04.119Z,male_vraiment_flat_188.wav,1,False,1181,58,h,2,0.142086,-35.616146
jeanmil,66,1,2024-03-03T15:50:04.119Z,male_vraiment_flat_188.wav,1,False,1181,58,h,3,0.213129,0.109627
jeanmil,66,1,2024-03-03T15:50:04.119Z,male_vraiment_flat_188.wav,1,False,1181,58,h,4,0.284172,2.553157
jeanmil,66,1,2024-03-03T15:50:04.119Z,male_vraiment_flat_188.wav,1,False,1181,58,h,5,0.355215,-21.302793
jeanmil,66,1,2024-03-03T15:50:04.119Z,male_vraiment_flat_188.wav,1,False,1181,58,h,6,0.426259,-116.307336
jeanmil,67,1,2024-03-03T15:50:04.119Z,male_vraiment_flat_159.wav,0,True,1260,58,h,0,0.000000,-84.088119
jeanmil,67,1,2024-03-03T15:50:04.119Z,male_vraiment_flat_159.wav,0,True,1260,58,h,1,0.071043,11.677970
jeanmil,67,1,2024-03-03T15:50:04.119Z,male_vraiment_flat_159.wav,0,True,1260,58,h,2,0.142086,70.948823
jeanmil,67,1,2024-03-03T15:50:04.119Z,male_vraiment_flat_159.wav,0,True,1260,58,h,3,0.213129,101.030552
jeanmil,67,1,2024-03-03T15:50:04.119Z,male_vraiment_flat_159.wav,0,True,1260,58,h,4,0.284172,35.233409
jeanmil,67,1,2024-03-03T15:50:04.119Z,male_vraiment_flat_159.wav,0,True,1260,58,h,5,0.355215,70.014692
jeanmil,67,1,2024-03-03T15:50:04.119Z,male_vraiment_flat_159.wav,0,True,1260,58,h,6,0.426259,-21.284009
jeanmil,67,1,2024-03-03T15:50:04.119Z,male_vraiment_flat_162.wav,1,False,1260,58,h,0,0.000000,-28.080103
jeanmil,67,1,2024-03-03T15:50:04.119Z,male_vraiment_flat_162.wav,1,False,1260,58,h,1,0.071043,-58.839442
jeanmil,67,1,2024-03-03T15:50:04.119Z,male_vraiment_flat_162.wav,1,False,1260,58,h,2,0.142086,8.883261
jeanmil,67,1,2024-03-03T15:50:04.119Z,male_vraiment_flat_162.wav,1,False,1260,58,h,3,0.213129,109.746189
jeanmil,67,1,2024-03-03T15:50:04.119Z,male_vraiment_flat_162.wav,1,False,1260,58,h,4,0.284172,134.765505
jeanmil,67,1,2024-03-03T15:50:04.119Z,male_vraiment_flat_162.wav,1,False,1260,58,h,5,0.355215,-8.935646
jeanmil,67,1,2024-03-03T15:50:04.119Z,male_vraiment_flat_162.wav,1,False,1260,58,h,6,0.426259,114.162759
jeanmil,68,1,2024-03-03T15:50:04.119Z,male_vraiment_flat_16.wav,0,False,1635,58,h,0,0.000000,141.243943
jeanmil,68,1,2024-03-03T15:50:04.119Z,male_vraiment_flat_16.wav,0,False,1635,58,h,1,0.071043,-34.322435
jeanmil,68,1,2024-03-03T15:50:04.119Z,male_vraiment_flat_16.wav,0,False,1635,58,h,2,0.142086,10.018864
jeanmil,68,1,2024-03-03T15:50:04.119Z,male_vraiment_flat_16.wav,0,False,1635,58,h,3,0.213129,-24.066951
jeanmil,68,1,2024-03-03T15:50:04.119Z,male_vraiment_flat_16.wav,0,False,1635,58,h,4,0.284172,45.502655
jeanmil,68,1,2024-03-03T15:50:04.119Z,male_vraiment_flat_16.wav,0,False,1635,58,h,5,0.355215,107.276086
jeanmil,68,1,2024-03-03T15:50:04.119Z,male_vraiment_flat_16.wav,0,False,1635,58,h,6,0.426259,58.110380
jeanmil,68,1,2024-03-03T15:50:04.119Z,male_vraiment_flat_73.wav,1,True,1635,58,h,0,0.000000,116.322519
jeanmil,68,1,2024-03-03T15:50:04.119Z,male_vraiment_flat_73.wav,1,True,1635,58,h,1,0.071043,-36.491811
jeanmil,68,1,2024-03-03T15:50:04.119Z,male_vraiment_flat_73.wav,1,True,1635,58,h,2,0.142086,56.992902
jeanmil,68,1,2024-03-03T15:50:04.119Z,male_vraiment_flat_73.wav,1,True,1635,58,h,3,0.213129,-102.405714
jeanmil,68,1,2024-03-03T15:50:04.119Z,male_vraiment_flat_73.wav,1,True,1635,58,h,4,0.284172,18.027278
jeanmil,68,1,2024-03-03T15:50:04.119Z,male_vraiment_flat_73.wav,1,True,1635,58,h,5,0.355215,92.986932
