subj,trial,block,date,stim,stim_order,response,rt,age,sex,param_index,segment_time,pitch
consent,0,0,2024-03-03T14:34:19.041Z,male_vraiment_flat_51.wav,0,False,4466,65,féminin,0,0.000000,130.517111
consent,0,0,2024-03-03T14:34:19.041Z,male_vraiment_flat_51.wav,0,False,4466,65,féminin,1,0.071043,138.869679
consent,0,0,2024-03-03T14:34:19.041Z,male_vraiment_flat_51.wav,0,False,4466,65,féminin,2,0.142086,-34.276776
consent,0,0,2024-03-03T14:34:19.041Z,male_vraiment_flat_51.wav,0,False,4466,65,féminin,3,0.213129,76.935346
consent,0,0,2024-03-03T14:34:19.041Z,male_vraiment_flat_51.wav,0,False,4466,65,féminin,4,0.284172,-118.523911
consent,0,0,2024-03-03T14:34:19.041Z,male_vraiment_flat_51.wav,0,False,4466,65,féminin,5,0.355215,-103.328524
consent,0,0,2024-03-03T14:34:19.041Z,male_vraiment_flat_51.wav,0,False,4466,65,féminin,6,0.426259,-14.442096
consent,0,0,2024-03-03T14:34:19.041Z,male_vraiment_flat_50.wav,1,True,4466,65,féminin,0,0.000000,96.336182
consent,0,0,2024-03-03T14:34:19.041Z,male_vraiment_flat_50.wav,1,True,4466,65,féminin,1,0.071043,-104.561128
consent,0,0,2024-03-03T14:34:19.041Z,male_vraiment_flat_50.wav,1,True,4466,65,féminin,2,0.142086,-130.066913
consent,0,0,2024-03-03T14:34:19.041Z,male_vraiment_flat_50.wav,1,True,4466,65,féminin,3,0.213129,-24.308766
consent,0,0,2024-03-03T14:34:19.041Z,male_vraiment_flat_50.wav,1,True,4466,65,féminin,4,0.284172,40.127472
consent,0,0,2024-03-03T14:34:19.041Z,male_vraiment_flat_50.wav,1,True,4466,65,féminin,5,0.355215,49.388454
consent,0,0,2024-03-03T14:34:19.041Z,male_vraiment_flat_50.wav,1,True,4466,65,féminin,6,0.426259,116.704022
consent,1,0,2024-03-03T14:34:19.041Z,male_vraiment_flat_81.wav,0,False,1883,65,féminin,0,0.000000,35.884214
consent,1,0,2024-03-03T14:34:19.041Z,male_vraiment_flat_81.wav,0,False,1883,65,féminin,1,0.071043,19.404831
consent,1,0,2024-03-03T14:34:19.041Z,male_vraiment_flat_81.wav,0,False,1883,65,féminin,2,0.142086,121.693264
consent,1,0,2024-03-03T14:34:19.041Z,male_vraiment_flat_81.wav,0,False,1883,65,féminin,3,0.213129,29.127429
consent,1,0,2024-03-03T14:34:19.041Z,male_vraiment_flat_81.wav,0,False,1883,65,féminin,4,0.284172,71.322417
consent,1,0,2024-03-03T14:34:19.041Z,male_vraiment_flat_81.wav,0,False,1883,65,féminin,5,0.355215,138.687922
consent,1,0,2024-03-03T14:34:19.041Z,male_vraiment_flat_81.wav,0,False,1883,65,féminin,6,0.426259,110.537915
consent,1,0,2024-03-03T14:34:19.041Z,male_vraiment_flat_99.wav,1,True,1883,65,féminin,0,0.000000,-67.009894
consent,1,0,2024-03-03T14:34:19.041Z,male_vraiment_flat_99.wav,1,True,1883,65,féminin,1,0.071043,-124.385437
consent,1,0,2024-03-03T14:34:19.041Z,male_vraiment_flat_99.wav,1,True,1883,65,féminin,2,0.142086,-32.338754
consent,1,0,2024-03-03T14:34:19.041Z,male_vraiment_flat_99.wav,1,True,1883,65,féminin,3,0.213129,-145.840775
consent,1,0,2024-03-03T14:34:19.041Z,male_vraiment_flat_99.wav,1,True,1883,65,féminin,4,0.284172,-6.786611
consent,1,0,2024-03-03T14:34:19.041Z,male_vraiment_flat_99.wav,1,True,1883,65,féminin,5,0.355215,89.278278
consent,1,0,2024-03-03T14:34:19.041Z,male_vraiment_flat_99.wav,1,True,1883,65,féminin,6,0.426259,-47.823672
consent,2,0,2024-03-03T14:34:19.041Z,male_vraiment_flat_23.wav,0,True,3582,65,féminin,0,0.000000,27.345676
consent,2,0,2024-03-03T14:34:19.041Z,male_vraiment_flat_23.wav,0,True,3582,65,féminin,1,0.071043,118.378449
consent,2,0,2024-03-03T14:34:19.041Z,male_vraiment_flat_23.wav,0,True,3582,65,féminin,2,0.142086,35.467907
consent,2,0,2024-03-03T14:34:19.041Z,male_vraiment_flat_23.wav,0,True,3582,65,féminin,3,0.213129,-5.979973
consent,2,0,2024-03-03T14:34:19.041Z,male_vraiment_flat_23.wav,0,True,3582,65,féminin,4,0.284172,18.578162
consent,2,0,2024-03-03T14:34:19.041Z,male_vraiment_flat_23.wav,0,True,3582,65,féminin,5,0.355215,-9.540782
consent,2,0,2024-03-03T14:34:19.041Z,male_vraiment_flat_23.wav,0,True,3582,65,féminin,6,0.426259,-13.092534
consent,2,0,2024-03-03T14:34:19.041Z,male_vraiment_flat_188.wav,1,False,3582,65,féminin,0,0.000000,-11.484944
consent,2,0,2024-03-03T14:34:19.041Z,male_vraiment_flat_188.wav,1,False,3582,65,féminin,1,0.071043,-70.368872
consent,2,0,2024-03-03T14:34:19.041Z,male_vraiment_flat_188.wav,1,False,3582,65,féminin,2,0.142086,-35.616146
consent,2,0,2024-03-03T14:34:19.041Z,male_vraiment_flat_188.wav,1,False,3582,65,féminin,3,0.213129,0.109627
consent,2,0,2024-03-03T14:34:19.041Z,male_vraiment_flat_188.wav,1,False,3582,65,féminin,4,0.284172,2.553157
consent,2,0,2024-03-03T14:34:19.041Z,male_vraiment_flat_188.wav,1,False,3582,65,féminin,5,0.355215,-21.302793
consent,2,0,2024-03-03T14:34:19.041Z,male_vraiment_flat_188.wav,1,False,3582,65,féminin,6,0.426259,-116.307336
consent,3,0,2024-03-03T14:34:19.041Z,male_vraiment_flat_54.wav,0,False,3371,65,féminin,0,0.000000,117.470857
consent,3,0,2024-03-03T14:34:19.041Z,male_vraiment_flat_54.wav,0,False,3371,65,féminin,1,0.071043,-78.886002
consent,3,0,2024-03-03T14:34:19.041Z,male_vraiment_flat_54.wav,0,False,3371,65,féminin,2,0.142086,14.587652
consent,3,0,2024-03-03T14:34:19.041Z,male_vraiment_flat_54.wav,0,False,3371,65,féminin,3,0.213129,69.368451
consent,3,0,2024-03-03T14:34:19.041Z,male_vraiment_flat_54.wav,0,False,3371,65,féminin,4,0.284172,64.657305
consent,3,0,2024-03-03T14:34:19.041Z,male_vraiment_flat_54.wav,0,False,3371,65,féminin,5,0.355215,7.845227
consent,3,0,2024-03-03T14:34:19.041Z,male_vraiment_flat_54.wav,0,False,3371,65,féminin,6,0.426259,-11.003085
consent,3,0,2024-03-03T14:34:19.041Z,male_vraiment_flat_148.wav,1,True,3371,65,féminin,0,0.000000,-84.148504
consent,3,0,2024-03-03T14:34:19.041Z,male_vraiment_flat_148.wav,1,True,3371,65,féminin,1,0.071043,116.395609
consent,3,0,2024-03-03T14:34:19.041Z,male_vraiment_flat_148.wav,1,True,3371,65,féminin,2,0.142086,22.272455
consent,3,0,2024-03-03T14:34:19.041Z,male_vraiment_flat_148.wav,1,True,3371,65,féminin,3,0.213129,-42.662376
consent,3,0,2024-03-03T14:34:19.041Z,male_vraiment_flat_148.wav,1,True,3371,65,féminin,4,0.284172,44.974228
consent,3,0,2024-03-03T14:34:19.041Z,male_vraiment_flat_148.wav,1,True,3371,65,féminin,5,0.355215,-100.807841
consent,3,0,2024-03-03T14:34:19.041Z,male_vraiment_flat_148.wav,1,True,3371,65,féminin,6,0.426259,75.062158
consent,4,0,2024-03-03T14:34:19.041Z,male_vraiment_flat_47.wav,0,False,3925,65,féminin,0,0.000000,11.243959
consent,4,0,2024-03-03T14:34:19.041Z,male_vraiment_flat_47.wav,0,False,3925,65,féminin,1,0.071043,-131.885563
consent,4,0,2024-03-03T14:34:19.041Z,male_vraiment_flat_47.wav,0,False,3925,65,féminin,2,0.142086,22.720944
consent,4,0,2024-03-03T14:34:19.041Z,male_vraiment_flat_47.wav,0,False,3925,65,féminin,3,0.213129,-98.981706
consent,4,0,2024-03-03T14:34:19.041Z,male_vraiment_flat_47.wav,0,False,3925,65,féminin,4,0.284172,-117.392555
consent,4,0,2024-03-03T14:34:19.041Z,male_vraiment_flat_47.wav,0,False,3925,65,féminin,5,0.355215,-7.362816
consent,4,0,2024-03-03T14:34:19.041Z,male_vraiment_flat_47.wav,0,False,3925,65,féminin,6,0.426259,149.963589
consent,4,0,2024-03-03T14:34:19.041Z,male_vraiment_flat_197.wav,1,True,3925,65,féminin,0,0.000000,7.012988
consent,4,0,2024-03-03T14:34:19.041Z,male_vraiment_flat_197.wav,1,True,3925,65,féminin,1,0.071043,64.551185
consent,4,0,2024-03-03T14:34:19.041Z,male_vraiment_flat_197.wav,1,True,3925,65,féminin,2,0.142086,-65.392523
consent,4,0,2024-03-03T14:34:19.041Z,male_vraiment_flat_197.wav,1,True,3925,65,féminin,3,0.213129,18.180118
consent,4,0,2024-03-03T14:34:19.041Z,male_vraiment_flat_197.wav,1,True,3925,65,féminin,4,0.284172,-30.775220
consent,4,0,2024-03-03T14:34:19.041Z,male_vraiment_flat_197.wav,1,True,3925,65,féminin,5,0.355215,95.802549
consent,4,0,2024-03-03T14:34:19.041Z,male_vraiment_flat_197.wav,1,True,3925,65,féminin,6,0.426259,-129.373786
consent,5,0,2024-03-03T14:34:19.041Z,male_vraiment_flat_169.wav,0,False,1724,65,féminin,0,0.000000,117.441793
consent,5,0,2024-03-03T14:34:19.041Z,male_vraiment_flat_169.wav,0,False,1724,65,féminin,1,0.071043,-117.459261
consent,5,0,2024-03-03T14:34:19.041Z,male_vraiment_flat_169.wav,0,False,1724,65,féminin,2,0.142086,-45.020491
consent,5,0,2024-03-03T14:34:19.041Z,male_vraiment_flat_169.wav,0,False,1724,65,féminin,3,0.213129,-67.699150
consent,5,0,2024-03-03T14:34:19.041Z,male_vraiment_flat_169.wav,0,False,1724,65,féminin,4,0.284172,-122.755451
consent,5,0,2024-03-03T14:34:19.041Z,male_vraiment_flat_169.wav,0,False,1724,65,féminin,5,0.355215,-10.702133
consent,5,0,2024-03-03T14:34:19.041Z,male_vraiment_flat_169.wav,0,False,1724,65,féminin,6,0.426259,66.943327
consent,5,0,2024-03-03T14:34:19.041Z,male_vraiment_flat_70.wav,1,True,1724,65,féminin,0,0.000000,-95.640606
consent,5,0,2024-03-03T14:34:19.041Z,male_vraiment_flat_70.wav,1,True,1724,65,féminin,1,0.071043,17.584667
consent,5,0,2024-03-03T14:34:19.041Z,male_vraiment_flat_70.wav,1,True,1724,65,féminin,2,0.142086,9.439432
consent,5,0,2024-03-03T14:34:19.041Z,male_vraiment_flat_70.wav,1,True,1724,65,féminin,3,0.213129,26.204853
consent,5,0,2024-03-03T14:34:19.041Z,male_vraiment_flat_70.wav,1,True,1724,65,féminin,4,0.284172,19.735476
consent,5,0,2024-03-03T14:34:19.041Z,male_vraiment_flat_70.wav,1,True,1724,65,féminin,5,0.355215,-45.465161
consent,5,0,2024-03-03T14:34:19.041Z,male_vraiment_flat_70.wav,1,True,1724,65,féminin,6,0.426259,24.901866
consent,6,0,2024-03-03T14:34:19.041Z,male_vraiment_flat_36.wav,0,False,1685,65,féminin,0,0.000000,-33.837960
consent,6,0,2024-03-03T14:34:19.041Z,male_vraiment_flat_36.wav,0,False,1685,65,féminin,1,0.071043,102.134309
consent,6,0,2024-03-03T14:34:19.041Z,male_vraiment_flat_36.wav,0,False,1685,65,féminin,2,0.142086,100.949665
consent,6,0,2024-03-03T14:34:19.041Z,male_vraiment_flat_36.wav,0,False,1685,65,féminin,3,0.213129,77.352428
consent,6,0,2024-03-03T14:34:19.041Z,male_vraiment_flat_36.wav,0,False,1685,65,féminin,4,0.284172,-1.995321
consent,6,0,2024-03-03T14:34:19.041Z,male_vraiment_flat_36.wav,0,False,1685,65,féminin,5,0.355215,-13.382838
consent,6,0,2024-03-03T14:34:19.041Z,male_vraiment_flat_36.wav,0,False,1685,65,féminin,6,0.426259,-42.807835
consent,6,0,2024-03-03T14:34:19.041Z,male_vraiment_flat_87.wav,1,True,1685,65,féminin,0,0.000000,123.541183
consent,6,0,2024-03-03T14:34:19.041Z,male_vraiment_flat_87.wav,1,True,1685,65,féminin,1,0.071043,-79.641893
consent,6,0,2024-03-03T14:34:19.041Z,male_vraiment_flat_87.wav,1,True,1685,65,féminin,2,0.142086,-129.036775
consent,6,0,2024-03-03T14:34:19.041Z,male_vraiment_flat_87.wav,1,True,1685,65,féminin,3,0.213129,-12.372422
consent,6,0,2024-03-03T14:34:19.041Z,male_vraiment_flat_87.wav,1,True,1685,65,féminin,4,0.284172,47.099802
consent,6,0,2024-03-03T14:34:19.041Z,male_vraiment_flat_87.wav,1,True,1685,65,féminin,5,0.355215,133.796504
consent,6,0,2024-03-03T14:34:19.041Z,male_vraiment_flat_87.wav,1,True,1685,65,féminin,6,0.426259,125.051187
consent,7,0,2024-03-03T14:34:19.041Z,male_vraiment_flat_105.wav,0,False,2185,65,féminin,0,0.000000,125.556012
consent,7,0,2024-03-03T14:34:19.041Z,male_vraiment_flat_105.wav,0,False,2185,65,féminin,1,0.071043,102.885047
consent,7,0,2024-03-03T14:34:19.041Z,male_vraiment_flat_105.wav,0,False,2185,65,féminin,2,0.142086,-23.318884
consent,7,0,2024-03-03T14:34:19.041Z,male_vraiment_flat_105.wav,0,False,2185,65,féminin,3,0.213129,96.270063
consent,7,0,2024-03-03T14:34:19.041Z,male_vraiment_flat_105.wav,0,False,2185,65,féminin,4,0.284172,-32.661499
consent,7,0,2024-03-03T14:34:19.041Z,male_vraiment_flat_105.wav,0,False,2185,65,féminin,5,0.355215,-7.829717
consent,7,0,2024-03-03T14:34:19.041Z,male_vraiment_flat_105.wav,0,False,2185,65,féminin,6,0.426259,-13.047753
consent,7,0,2024-03-03T14:34:19.041Z,male_vraiment_flat_106.wav,1,True,2185,65,féminin,0,0.000000,13.442505
consent,7,0,2024-03-03T14:34:19.041Z,male_vraiment_flat_106.wav,1,True,2185,65,féminin,1,0.071043,67.880832
consent,7,0,2024-03-03T14:34:19.041Z,male_vraiment_flat_106.wav,1,True,2185,65,féminin,2,0.142086,105.927648
consent,7,0,2024-03-03T14:34:19.041Z,male_vraiment_flat_106.wav,1,True,2185,65,féminin,3,0.213129,65.041696
consent,7,0,2024-03-03T14:34:19.041Z,male_vraiment_flat_106.wav,1,True,2185,65,féminin,4,0.284172,-59.466654
consent,7,0,2024-03-03T14:34:19.041Z,male_vraiment_flat_106.wav,1,True,2185,65,féminin,5,0.355215,55.710963
consent,7,0,2024-03-03T14:34:19.041Z,male_vraiment_flat_106.wav,1,True,2185,65,féminin,6,0.426259,127.964857
consent,8,0,2024-03-03T14:34:19.041Z,male_vraiment_flat_113.wav,0,False,1482,65,féminin,0,0.000000,52.176539
consent,8,0,2024-03-03T14:34:19.041Z,male_vraiment_flat_113.wav,0,False,1482,65,féminin,1,0.071043,52.904766
consent,8,0,2024-03-03T14:34:19.041Z,male_vraiment_flat_113.wav,0,False,1482,65,féminin,2,0.142086,-138.473207
consent,8,0,2024-03-03T14:34:19.041Z,male_vraiment_flat_113.wav,0,False,1482,65,féminin,3,0.213129,-65.217652
consent,8,0,2024-03-03T14:34:19.041Z,male_vraiment_flat_113.wav,0,False,1482,65,féminin,4,0.284172,3.928053
consent,8,0,2024-03-03T14:34:19.041Z,male_vraiment_flat_113.wav,0,False,1482,65,féminin,5,0.355215,69.229623
consent,8,0,2024-03-03T14:34:19.041Z,male_vraiment_flat_113.wav,0,False,1482,65,féminin,6,0.426259,-85.157528
consent,8,0,2024-03-03T14:34:19.041Z,male_vraiment_flat_88.wav,1,True,1482,65,féminin,0,0.000000,-104.432443
consent,8,0,2024-03-03T14:34:19.041Z,male_vraiment_flat_88.wav,1,True,1482,65,féminin,1,0.071043,71.901933
consent,8,0,2024-03-03T14:34:19.041Z,male_vraiment_flat_88.wav,1,True,1482,65,féminin,2,0.142086,62.017491
consent,8,0,2024-03-03T14:34:19.041Z,male_vraiment_flat_88.wav,1,True,1482,65,féminin,3,0.213129,-148.109936
consent,8,0,2024-03-03T14:34:19.041Z,male_vraiment_flat_88.wav,1,True,1482,65,féminin,4,0.284172,21.087169
consent,8,0,2024-03-03T14:34:19.041Z,male_vraiment_flat_88.wav,1,True,1482,65,féminin,5,0.355215,98.793360
consent,8,0,2024-03-03T14:34:19.041Z,male_vraiment_flat_88.wav,1,True,1482,65,féminin,6,0.426259,84.960800
consent,9,0,2024-03-03T14:34:19.041Z,male_vraiment_flat_153.wav,0,False,11543,65,féminin,0,0.000000,-62.105340
consent,9,0,2024-03-03T14:34:19.041Z,male_vraiment_flat_153.wav,0,False,11543,65,féminin,1,0.071043,-52.997588
consent,9,0,2024-03-03T14:34:19.041Z,male_vraiment_flat_153.wav,0,False,11543,65,féminin,2,0.142086,-76.077591
consent,9,0,2024-03-03T14:34:19.041Z,male_vraiment_flat_153.wav,0,False,11543,65,féminin,3,0.213129,-18.807121
consent,9,0,2024-03-03T14:34:19.041Z,male_vraiment_flat_153.wav,0,False,11543,65,féminin,4,0.284172,-115.396331
consent,9,0,2024-03-03T14:34:19.041Z,male_vraiment_flat_153.wav,0,False,11543,65,féminin,5,0.355215,-128.292537
consent,9,0,2024-03-03T14:34:19.041Z,male_vraiment_flat_153.wav,0,False,11543,65,féminin,6,0.426259,-78.650880
consent,9,0,2024-03-03T14:34:19.041Z,male_vraiment_flat_37.wav,1,True,11543,65,féminin,0,0.000000,-50.449081
consent,9,0,2024-03-03T14:34:19.041Z,male_vraiment_flat_37.wav,1,True,11543,65,féminin,1,0.071043,28.423389
consent,9,0,2024-03-03T14:34:19.041Z,male_vraiment_flat_37.wav,1,True,11543,65,féminin,2,0.142086,-105.344692
consent,9,0,2024-03-03T14:34:19.041Z,male_vraiment_flat_37.wav,1,True,11543,65,féminin,3,0.213129,-99.811505
consent,9,0,2024-03-03T14:34:19.041Z,male_vraiment_flat_37.wav,1,True,11543,65,féminin,4,0.284172,142.698740
consent,9,0,2024-03-03T14:34:19.041Z,male_vraiment_flat_37.wav,1,True,11543,65,féminin,5,0.355215,-90.971946
consent,9,0,2024-03-03T14:34:19.041Z,male_vraiment_flat_37.wav,1,True,11543,65,féminin,6,0.426259,19.642948
consent,10,0,2024-03-03T14:34:19.041Z,male_vraiment_flat_192.wav,0,False,3270,65,féminin,0,0.000000,46.973159
consent,10,0,2024-03-03T14:34:19.041Z,male_vraiment_flat_192.wav,0,False,3270,65,féminin,1,0.071043,-61.711820
consent,10,0,2024-03-03T14:34:19.041Z,male_vraiment_flat_192.wav,0,False,3270,65,féminin,2,0.142086,14.836428
consent,10,0,2024-03-03T14:34:19.041Z,male_vraiment_flat_192.wav,0,False,3270,65,féminin,3,0.213129,30.862549
consent,10,0,2024-03-03T14:34:19.041Z,male_vraiment_flat_192.wav,0,False,3270,65,féminin,4,0.284172,28.459321
consent,10,0,2024-03-03T14:34:19.041Z,male_vraiment_flat_192.wav,0,False,3270,65,féminin,5,0.355215,2.114815
consent,10,0,2024-03-03T14:34:19.041Z,male_vraiment_flat_192.wav,0,False,3270,65,féminin,6,0.426259,86.651936
consent,10,0,2024-03-03T14:34:19.041Z,male_vraiment_flat_184.wav,1,True,3270,65,féminin,0,0.000000,86.245131
consent,10,0,2024-03-03T14:34:19.041Z,male_vraiment_flat_184.wav,1,True,3270,65,féminin,1,0.071043,106.604050
consent,10,0,2024-03-03T14:34:19.041Z,male_vraiment_flat_184.wav,1,True,3270,65,féminin,2,0.142086,-48.425154
consent,10,0,2024-03-03T14:34:19.041Z,male_vraiment_flat_184.wav,1,True,3270,65,féminin,3,0.213129,48.927001
consent,10,0,2024-03-03T14:34:19.041Z,male_vraiment_flat_184.wav,1,True,3270,65,féminin,4,0.284172,-82.972934
consent,10,0,2024-03-03T14:34:19.041Z,male_vraiment_flat_184.wav,1,True,3270,65,féminin,5,0.355215,73.552976
consent,10,0,2024-03-03T14:34:19.041Z,male_vraiment_flat_184.wav,1,True,3270,65,féminin,6,0.426259,-131.359115
consent,11,0,2024-03-03T14:34:19.041Z,male_vraiment_flat_126.wav,0,False,1398,65,féminin,0,0.000000,23.450520
consent,11,0,2024-03-03T14:34:19.041Z,male_vraiment_flat_126.wav,0,False,1398,65,féminin,1,0.071043,102.584681
consent,11,0,2024-03-03T14:34:19.041Z,male_vraiment_flat_126.wav,0,False,1398,65,féminin,2,0.142086,38.224300
consent,11,0,2024-03-03T14:34:19.041Z,male_vraiment_flat_126.wav,0,False,1398,65,féminin,3,0.213129,-16.427695
consent,11,0,2024-03-03T14:34:19.041Z,male_vraiment_flat_126.wav,0,False,1398,65,féminin,4,0.284172,7.421137
consent,11,0,2024-03-03T14:34:19.041Z,male_vraiment_flat_126.wav,0,False,1398,65,féminin,5,0.355215,-9.369055
consent,11,0,2024-03-03T14:34:19.041Z,male_vraiment_flat_126.wav,0,False,1398,65,féminin,6,0.426259,-89.176758
consent,11,0,2024-03-03T14:34:19.041Z,male_vraiment_flat_62.wav,1,True,1398,65,féminin,0,0.000000,-118.782832
consent,11,0,2024-03-03T14:34:19.041Z,male_vraiment_flat_62.wav,1,True,1398,65,féminin,1,0.071043,-35.995173
consent,11,0,2024-03-03T14:34:19.041Z,male_vraiment_flat_62.wav,1,True,1398,65,féminin,2,0.142086,21.697311
consent,11,0,2024-03-03T14:34:19.041Z,male_vraiment_flat_62.wav,1,True,1398,65,féminin,3,0.213129,22.125919
consent,11,0,2024-03-03T14:34:19.041Z,male_vraiment_flat_62.wav,1,True,1398,65,féminin,4,0.284172,-42.995885
consent,11,0,2024-03-03T14:34:19.041Z,male_vraiment_flat_62.wav,1,True,1398,65,féminin,5,0.355215,-84.376770
consent,11,0,2024-03-03T14:34:19.041Z,male_vraiment_flat_62.wav,1,True,1398,65,féminin,6,0.426259,-12.230862
consent,12,0,2024-03-03T14:34:19.041Z,male_vraiment_flat_76.wav,0,False,1498,65,féminin,0,0.000000,-119.681125
consent,12,0,2024-03-03T14:34:19.041Z,male_vraiment_flat_76.wav,0,False,1498,65,féminin,1,0.071043,66.441865
consent,12,0,2024-03-03T14:34:19.041Z,male_vraiment_flat_76.wav,0,False,1498,65,féminin,2,0.142086,-95.265303
consent,12,0,2024-03-03T14:34:19.041Z,male_vraiment_flat_76.wav,0,False,1498,65,féminin,3,0.213129,7.780656
consent,12,0,2024-03-03T14:34:19.041Z,male_vraiment_flat_76.wav,0,False,1498,65,féminin,4,0.284172,-90.368576
consent,12,0,2024-03-03T14:34:19.041Z,male_vraiment_flat_76.wav,0,False,1498,65,féminin,5,0.355215,-64.528472
consent,12,0,2024-03-03T14:34:19.041Z,male_vraiment_flat_76.wav,0,False,1498,65,féminin,6,0.426259,-137.293439
consent,12,0,2024-03-03T14:34:19.041Z,male_vraiment_flat_111.wav,1,True,1498,65,féminin,0,0.000000,-76.898484
consent,12,0,2024-03-03T14:34:19.041Z,male_vraiment_flat_111.wav,1,True,1498,65,féminin,1,0.071043,128.576704
consent,12,0,2024-03-03T14:34:19.041Z,male_vraiment_flat_111.wav,1,True,1498,65,féminin,2,0.142086,84.475821
consent,12,0,2024-03-03T14:34:19.041Z,male_vraiment_flat_111.wav,1,True,1498,65,féminin,3,0.213129,13.962019
consent,12,0,2024-03-03T14:34:19.041Z,male_vraiment_flat_111.wav,1,True,1498,65,féminin,4,0.284172,80.950376
consent,12,0,2024-03-03T14:34:19.041Z,male_vraiment_flat_111.wav,1,True,1498,65,féminin,5,0.355215,105.627204
consent,12,0,2024-03-03T14:34:19.041Z,male_vraiment_flat_111.wav,1,True,1498,65,féminin,6,0.426259,86.259873
consent,13,0,2024-03-03T14:34:19.041Z,male_vraiment_flat_27.wav,0,False,938,65,féminin,0,0.000000,-44.196026
consent,13,0,2024-03-03T14:34:19.041Z,male_vraiment_flat_27.wav,0,False,938,65,féminin,1,0.071043,72.435582
consent,13,0,2024-03-03T14:34:19.041Z,male_vraiment_flat_27.wav,0,False,938,65,féminin,2,0.142086,30.880154
consent,13,0,2024-03-03T14:34:19.041Z,male_vraiment_flat_27.wav,0,False,938,65,féminin,3,0.213129,-98.055697
consent,13,0,2024-03-03T14:34:19.041Z,male_vraiment_flat_27.wav,0,False,938,65,féminin,4,0.284172,83.700413
consent,13,0,2024-03-03T14:34:19.041Z,male_vraiment_flat_27.wav,0,False,938,65,féminin,5,0.355215,23.865121
consent,13,0,2024-03-03T14:34:19.041Z,male_vraiment_flat_27.wav,0,False,938,65,féminin,6,0.426259,-44.006115
consent,13,0,2024-03-03T14:34:19.041Z,male_vraiment_flat_58.wav,1,True,938,65,féminin,0,0.000000,-52.909251
consent,13,0,2024-03-03T14:34:19.041Z,male_vraiment_flat_58.wav,1,True,938,65,féminin,1,0.071043,-4.560860
consent,13,0,2024-03-03T14:34:19.041Z,male_vraiment_flat_58.wav,1,True,938,65,féminin,2,0.142086,-106.285240
consent,13,0,2024-03-03T14:34:19.041Z,male_vraiment_flat_58.wav,1,True,938,65,féminin,3,0.213129,-64.474310
consent,13,0,2024-03-03T14:34:19.041Z,male_vraiment_flat_58.wav,1,True,938,65,féminin,4,0.284172,-121.964639
consent,13,0,2024-03-03T14:34:19.041Z,male_vraiment_flat_58.wav,1,True,938,65,féminin,5,0.355215,35.204504
consent,13,0,2024-03-03T14:34:19.041Z,male_vraiment_flat_58.wav,1,True,938,65,féminin,6,0.426259,-7.933790
consent,14,0,2024-03-03T14:34:19.041Z,male_vraiment_flat_30.wav,0,False,1624,65,féminin,0,0.000000,32.600333
consent,14,0,2024-03-03T14:34:19.041Z,male_vraiment_flat_30.wav,0,False,1624,65,féminin,1,0.071043,42.125884
consent,14,0,2024-03-03T14:34:19.041Z,male_vraiment_flat_30.wav,0,False,1624,65,féminin,2,0.142086,124.172285
consent,14,0,2024-03-03T14:34:19.041Z,male_vraiment_flat_30.wav,0,False,1624,65,féminin,3,0.213129,52.679052
consent,14,0,2024-03-03T14:34:19.041Z,male_vraiment_flat_30.wav,0,False,1624,65,féminin,4,0.284172,-111.889461
consent,14,0,2024-03-03T14:34:19.041Z,male_vraiment_flat_30.wav,0,False,1624,65,féminin,5,0.355215,64.478579
consent,14,0,2024-03-03T14:34:19.041Z,male_vraiment_flat_30.wav,0,False,1624,65,féminin,6,0.426259,22.023880
consent,14,0,2024-03-03T14:34:19.041Z,male_vraiment_flat_164.wav,1,True,1624,65,féminin,0,0.000000,-99.029475
consent,14,0,2024-03-03T14:34:19.041Z,male_vraiment_flat_164.wav,1,True,1624,65,féminin,1,0.071043,-83.219544
consent,14,0,2024-03-03T14:34:19.041Z,male_vraiment_flat_164.wav,1,True,1624,65,féminin,2,0.142086,-76.160804
consent,14,0,2024-03-03T14:34:19.041Z,male_vraiment_flat_164.wav,1,True,1624,65,féminin,3,0.213129,-60.412119
consent,14,0,2024-03-03T14:34:19.041Z,male_vraiment_flat_164.wav,1,True,1624,65,féminin,4,0.284172,-135.438027
consent,14,0,2024-03-03T14:34:19.041Z,male_vraiment_flat_164.wav,1,True,1624,65,féminin,5,0.355215,-30.546522
consent,14,0,2024-03-03T14:34:19.041Z,male_vraiment_flat_164.wav,1,True,1624,65,féminin,6,0.426259,-142.367635
consent,15,0,2024-03-03T14:34:19.041Z,male_vraiment_flat_53.wav,0,False,1314,65,féminin,0,0.000000,12.794375
consent,15,0,2024-03-03T14:34:19.041Z,male_vraiment_flat_53.wav,0,False,1314,65,féminin,1,0.071043,72.488609
consent,15,0,2024-03-03T14:34:19.041Z,male_vraiment_flat_53.wav,0,False,1314,65,féminin,2,0.142086,82.753367
consent,15,0,2024-03-03T14:34:19.041Z,male_vraiment_flat_53.wav,0,False,1314,65,féminin,3,0.213129,-11.724600
consent,15,0,2024-03-03T14:34:19.041Z,male_vraiment_flat_53.wav,0,False,1314,65,féminin,4,0.284172,8.499299
consent,15,0,2024-03-03T14:34:19.041Z,male_vraiment_flat_53.wav,0,False,1314,65,féminin,5,0.355215,84.468722
consent,15,0,2024-03-03T14:34:19.041Z,male_vraiment_flat_53.wav,0,False,1314,65,féminin,6,0.426259,-88.580062
consent,15,0,2024-03-03T14:34:19.041Z,male_vraiment_flat_196.wav,1,True,1314,65,féminin,0,0.000000,-42.342747
consent,15,0,2024-03-03T14:34:19.041Z,male_vraiment_flat_196.wav,1,True,1314,65,féminin,1,0.071043,-81.868734
consent,15,0,2024-03-03T14:34:19.041Z,male_vraiment_flat_196.wav,1,True,1314,65,féminin,2,0.142086,-18.906552
consent,15,0,2024-03-03T14:34:19.041Z,male_vraiment_flat_196.wav,1,True,1314,65,féminin,3,0.213129,-18.852092
consent,15,0,2024-03-03T14:34:19.041Z,male_vraiment_flat_196.wav,1,True,1314,65,féminin,4,0.284172,52.116670
consent,15,0,2024-03-03T14:34:19.041Z,male_vraiment_flat_196.wav,1,True,1314,65,féminin,5,0.355215,90.577409
consent,15,0,2024-03-03T14:34:19.041Z,male_vraiment_flat_196.wav,1,True,1314,65,féminin,6,0.426259,29.772760
consent,16,0,2024-03-03T14:34:19.041Z,male_vraiment_flat_90.wav,0,False,1283,65,féminin,0,0.000000,39.615876
consent,16,0,2024-03-03T14:34:19.041Z,male_vraiment_flat_90.wav,0,False,1283,65,féminin,1,0.071043,-130.464689
consent,16,0,2024-03-03T14:34:19.041Z,male_vraiment_flat_90.wav,0,False,1283,65,féminin,2,0.142086,46.838016
consent,16,0,2024-03-03T14:34:19.041Z,male_vraiment_flat_90.wav,0,False,1283,65,féminin,3,0.213129,104.861302
consent,16,0,2024-03-03T14:34:19.041Z,male_vraiment_flat_90.wav,0,False,1283,65,féminin,4,0.284172,-102.459680
consent,16,0,2024-03-03T14:34:19.041Z,male_vraiment_flat_90.wav,0,False,1283,65,féminin,5,0.355215,-91.275011
consent,16,0,2024-03-03T14:34:19.041Z,male_vraiment_flat_90.wav,0,False,1283,65,féminin,6,0.426259,45.823426
consent,16,0,2024-03-03T14:34:19.041Z,male_vraiment_flat_13.wav,1,True,1283,65,féminin,0,0.000000,-66.984077
consent,16,0,2024-03-03T14:34:19.041Z,male_vraiment_flat_13.wav,1,True,1283,65,féminin,1,0.071043,5.429279
consent,16,0,2024-03-03T14:34:19.041Z,male_vraiment_flat_13.wav,1,True,1283,65,féminin,2,0.142086,12.572717
consent,16,0,2024-03-03T14:34:19.041Z,male_vraiment_flat_13.wav,1,True,1283,65,féminin,3,0.213129,-71.562953
consent,16,0,2024-03-03T14:34:19.041Z,male_vraiment_flat_13.wav,1,True,1283,65,féminin,4,0.284172,-107.999901
consent,16,0,2024-03-03T14:34:19.041Z,male_vraiment_flat_13.wav,1,True,1283,65,féminin,5,0.355215,86.606735
consent,16,0,2024-03-03T14:34:19.041Z,male_vraiment_flat_13.wav,1,True,1283,65,féminin,6,0.426259,-82.122177
consent,17,0,2024-03-03T14:34:19.041Z,male_vraiment_flat_74.wav,0,False,1889,65,féminin,0,0.000000,71.293232
consent,17,0,2024-03-03T14:34:19.041Z,male_vraiment_flat_74.wav,0,False,1889,65,féminin,1,0.071043,32.860121
consent,17,0,2024-03-03T14:34:19.041Z,male_vraiment_flat_74.wav,0,False,1889,65,féminin,2,0.142086,-85.825735
consent,17,0,2024-03-03T14:34:19.041Z,male_vraiment_flat_74.wav,0,False,1889,65,féminin,3,0.213129,70.628085
consent,17,0,2024-03-03T14:34:19.041Z,male_vraiment_flat_74.wav,0,False,1889,65,féminin,4,0.284172,126.928038
consent,17,0,2024-03-03T14:34:19.041Z,male_vraiment_flat_74.wav,0,False,1889,65,féminin,5,0.355215,120.083362
consent,17,0,2024-03-03T14:34:19.041Z,male_vraiment_flat_74.wav,0,False,1889,65,féminin,6,0.426259,92.661740
consent,17,0,2024-03-03T14:34:19.041Z,male_vraiment_flat_171.wav,1,True,1889,65,féminin,0,0.000000,-132.910898
consent,17,0,2024-03-03T14:34:19.041Z,male_vraiment_flat_171.wav,1,True,1889,65,féminin,1,0.071043,-40.348113
consent,17,0,2024-03-03T14:34:19.041Z,male_vraiment_flat_171.wav,1,True,1889,65,féminin,2,0.142086,-144.469254
consent,17,0,2024-03-03T14:34:19.041Z,male_vraiment_flat_171.wav,1,True,1889,65,féminin,3,0.213129,-148.365603
consent,17,0,2024-03-03T14:34:19.041Z,male_vraiment_flat_171.wav,1,True,1889,65,féminin,4,0.284172,29.209812
consent,17,0,2024-03-03T14:34:19.041Z,male_vraiment_flat_171.wav,1,True,1889,65,féminin,5,0.355215,-68.789467
consent,17,0,2024-03-03T14:34:19.041Z,male_vraiment_flat_171.wav,1,True,1889,65,féminin,6,0.426259,116.539457
consent,18,0,2024-03-03T14:34:19.041Z,male_vraiment_flat_65.wav,0,False,1526,65,féminin,0,0.000000,104.278510
consent,18,0,2024-03-03T14:34:19.041Z,male_vraiment_flat_65.wav,0,False,1526,65,féminin,1,0.071043,120.742750
consent,18,0,2024-03-03T14:34:19.041Z,male_vraiment_flat_65.wav,0,False,1526,65,féminin,2,0.142086,116.963717
consent,18,0,2024-03-03T14:34:19.041Z,male_vraiment_flat_65.wav,0,False,1526,65,féminin,3,0.213129,-30.167489
consent,18,0,2024-03-03T14:34:19.041Z,male_vraiment_flat_65.wav,0,False,1526,65,féminin,4,0.284172,58.482575
consent,18,0,2024-03-03T14:34:19.041Z,male_vraiment_flat_65.wav,0,False,1526,65,féminin,5,0.355215,-35.240720
consent,18,0,2024-03-03T14:34:19.041Z,male_vraiment_flat_65.wav,0,False,1526,65,féminin,6,0.426259,-49.851341
consent,18,0,2024-03-03T14:34:19.041Z,male_vraiment_flat_40.wav,1,True,1526,65,féminin,0,0.000000,14.191871
consent,18,0,2024-03-03T14:34:19.041Z,male_vraiment_flat_40.wav,1,True,1526,65,féminin,1,0.071043,-146.480257
consent,18,0,2024-03-03T14:34:19.041Z,male_vraiment_flat_40.wav,1,True,1526,65,féminin,2,0.142086,53.736102
consent,18,0,2024-03-03T14:34:19.041Z,male_vraiment_flat_40.wav,1,True,1526,65,féminin,3,0.213129,76.339598
consent,18,0,2024-03-03T14:34:19.041Z,male_vraiment_flat_40.wav,1,True,1526,65,féminin,4,0.284172,128.682971
consent,18,0,2024-03-03T14:34:19.041Z,male_vraiment_flat_40.wav,1,True,1526,65,féminin,5,0.355215,-84.474700
consent,18,0,2024-03-03T14:34:19.041Z,male_vraiment_flat_40.wav,1,True,1526,65,féminin,6,0.426259,41.341932
consent,19,0,2024-03-03T14:34:19.041Z,male_vraiment_flat_162.wav,0,False,1180,65,féminin,0,0.000000,-28.080103
consent,19,0,2024-03-03T14:34:19.041Z,male_vraiment_flat_162.wav,0,False,1180,65,féminin,1,0.071043,-58.839442
consent,19,0,2024-03-03T14:34:19.041Z,male_vraiment_flat_162.wav,0,False,1180,65,féminin,2,0.142086,8.883261
consent,19,0,2024-03-03T14:34:19.041Z,male_vraiment_flat_162.wav,0,False,1180,65,féminin,3,0.213129,109.746189
consent,19,0,2024-03-03T14:34:19.041Z,male_vraiment_flat_162.wav,0,False,1180,65,féminin,4,0.284172,134.765505
consent,19,0,2024-03-03T14:34:19.041Z,male_vraiment_flat_162.wav,0,False,1180,65,féminin,5,0.355215,-8.935646
consent,19,0,2024-03-03T14:34:19.041Z,male_vraiment_flat_162.wav,0,False,1180,65,féminin,6,0.426259,114.162759
consent,19,0,2024-03-03T14:34:19.041Z,male_vraiment_flat_29.wav,1,True,1180,65,féminin,0,0.000000,78.626852
consent,19,0,2024-03-03T14:34:19.041Z,male_vraiment_flat_29.wav,1,True,1180,65,féminin,1,0.071043,124.163952
consent,19,0,2024-03-03T14:34:19.041Z,male_vraiment_flat_29.wav,1,True,1180,65,féminin,2,0.142086,-62.289103
consent,19,0,2024-03-03T14:34:19.041Z,male_vraiment_flat_29.wav,1,True,1180,65,féminin,3,0.213129,54.806982
consent,19,0,2024-03-03T14:34:19.041Z,male_vraiment_flat_29.wav,1,True,1180,65,féminin,4,0.284172,75.809549
consent,19,0,2024-03-03T14:34:19.041Z,male_vraiment_flat_29.wav,1,True,1180,65,féminin,5,0.355215,87.233703
consent,19,0,2024-03-03T14:34:19.041Z,male_vraiment_flat_29.wav,1,True,1180,65,féminin,6,0.426259,-95.916715
consent,20,0,2024-03-03T14:34:19.041Z,male_vraiment_flat_190.wav,0,False,1161,65,féminin,0,0.000000,-135.472764
consent,20,0,2024-03-03T14:34:19.041Z,male_vraiment_flat_190.wav,0,False,1161,65,féminin,1,0.071043,-16.311165
consent,20,0,2024-03-03T14:34:19.041Z,male_vraiment_flat_190.wav,0,False,1161,65,féminin,2,0.142086,-108.166759
consent,20,0,2024-03-03T14:34:19.041Z,male_vraiment_flat_190.wav,0,False,1161,65,féminin,3,0.213129,-73.778410
consent,20,0,2024-03-03T14:34:19.041Z,male_vraiment_flat_190.wav,0,False,1161,65,féminin,4,0.284172,-109.839915
consent,20,0,2024-03-03T14:34:19.041Z,male_vraiment_flat_190.wav,0,False,1161,65,féminin,5,0.355215,2.895785
consent,20,0,2024-03-03T14:34:19.041Z,male_vraiment_flat_190.wav,0,False,1161,65,féminin,6,0.426259,14.515822
consent,20,0,2024-03-03T14:34:19.041Z,male_vraiment_flat_167.wav,1,True,1161,65,féminin,0,0.000000,-97.244470
consent,20,0,2024-03-03T14:34:19.041Z,male_vraiment_flat_167.wav,1,True,1161,65,féminin,1,0.071043,55.519403
consent,20,0,2024-03-03T14:34:19.041Z,male_vraiment_flat_167.wav,1,True,1161,65,féminin,2,0.142086,-125.285214
consent,20,0,2024-03-03T14:34:19.041Z,male_vraiment_flat_167.wav,1,True,1161,65,féminin,3,0.213129,-87.843825
consent,20,0,2024-03-03T14:34:19.041Z,male_vraiment_flat_167.wav,1,True,1161,65,féminin,4,0.284172,-127.750284
consent,20,0,2024-03-03T14:34:19.041Z,male_vraiment_flat_167.wav,1,True,1161,65,féminin,5,0.355215,-93.631866
consent,20,0,2024-03-03T14:34:19.041Z,male_vraiment_flat_167.wav,1,True,1161,65,féminin,6,0.426259,6.691804
consent,21,0,2024-03-03T14:34:19.041Z,male_vraiment_flat_66.wav,0,True,3009,65,féminin,0,0.000000,96.429433
consent,21,0,2024-03-03T14:34:19.041Z,male_vraiment_flat_66.wav,0,True,3009,65,féminin,1,0.071043,13.373052
consent,21,0,2024-03-03T14:34:19.041Z,male_vraiment_flat_66.wav,0,True,3009,65,féminin,2,0.142086,112.602816
consent,21,0,2024-03-03T14:34:19.041Z,male_vraiment_flat_66.wav,0,True,3009,65,féminin,3,0.213129,110.292573
consent,21,0,2024-03-03T14:34:19.041Z,male_vraiment_flat_66.wav,0,True,3009,65,féminin,4,0.284172,-89.729138
consent,21,0,2024-03-03T14:34:19.041Z,male_vraiment_flat_66.wav,0,True,3009,65,féminin,5,0.355215,-67.456514
consent,21,0,2024-03-03T14:34:19.041Z,male_vraiment_flat_66.wav,0,True,3009,65,féminin,6,0.426259,79.997172
consent,21,0,2024-03-03T14:34:19.041Z,male_vraiment_flat_186.wav,1,False,3009,65,féminin,0,0.000000,-146.338275
consent,21,0,2024-03-03T14:34:19.041Z,male_vraiment_flat_186.wav,1,False,3009,65,féminin,1,0.071043,17.632346
consent,21,0,2024-03-03T14:34:19.041Z,male_vraiment_flat_186.wav,1,False,3009,65,féminin,2,0.142086,135.683559
consent,21,0,2024-03-03T14:34:19.041Z,male_vraiment_flat_186.wav,1,False,3009,65,féminin,3,0.213129,133.054558
consent,21,0,2024-03-03T14:34:19.041Z,male_vraiment_flat_186.wav,1,False,3009,65,féminin,4,0.284172,-31.983178
consent,21,0,2024-03-03T14:34:19.041Z,male_vraiment_flat_186.wav,1,False,3009,65,féminin,5,0.355215,-117.937109
consent,21,0,2024-03-03T14:34:19.041Z,male_vraiment_flat_186.wav,1,False,3009,65,féminin,6,0.426259,-78.681829
consent,22,0,2024-03-03T14:34:19.041Z,male_vraiment_flat_6.wav,0,True,1403,65,féminin,0,0.000000,99.637695
consent,22,0,2024-03-03T14:34:19.041Z,male_vraiment_flat_6.wav,0,True,1403,65,féminin,1,0.071043,129.019395
consent,22,0,2024-03-03T14:34:19.041Z,male_vraiment_flat_6.wav,0,True,1403,65,féminin,2,0.142086,85.352544
consent,22,0,2024-03-03T14:34:19.041Z,male_vraiment_flat_6.wav,0,True,1403,65,féminin,3,0.213129,122.275637
consent,22,0,2024-03-03T14:34:19.041Z,male_vraiment_flat_6.wav,0,True,1403,65,féminin,4,0.284172,45.838224
consent,22,0,2024-03-03T14:34:19.041Z,male_vraiment_flat_6.wav,0,True,1403,65,féminin,5,0.355215,149.126562
consent,22,0,2024-03-03T14:34:19.041Z,male_vraiment_flat_6.wav,0,True,1403,65,féminin,6,0.426259,9.632372
consent,22,0,2024-03-03T14:34:19.041Z,male_vraiment_flat_12.wav,1,False,1403,65,féminin,0,0.000000,-11.936919
consent,22,0,2024-03-03T14:34:19.041Z,male_vraiment_flat_12.wav,1,False,1403,65,féminin,1,0.071043,-51.249998
consent,22,0,2024-03-03T14:34:19.041Z,male_vraiment_flat_12.wav,1,False,1403,65,féminin,2,0.142086,42.322915
consent,22,0,2024-03-03T14:34:19.041Z,male_vraiment_flat_12.wav,1,False,1403,65,féminin,3,0.213129,-19.839410
consent,22,0,2024-03-03T14:34:19.041Z,male_vraiment_flat_12.wav,1,False,1403,65,féminin,4,0.284172,46.127041
consent,22,0,2024-03-03T14:34:19.041Z,male_vraiment_flat_12.wav,1,False,1403,65,féminin,5,0.355215,34.596861
consent,22,0,2024-03-03T14:34:19.041Z,male_vraiment_flat_12.wav,1,False,1403,65,féminin,6,0.426259,143.594573
consent,23,0,2024-03-03T14:34:19.041Z,male_vraiment_flat_86.wav,0,True,1426,65,féminin,0,0.000000,85.260205
consent,23,0,2024-03-03T14:34:19.041Z,male_vraiment_flat_86.wav,0,True,1426,65,féminin,1,0.071043,-4.684566
consent,23,0,2024-03-03T14:34:19.041Z,male_vraiment_flat_86.wav,0,True,1426,65,féminin,2,0.142086,133.406345
consent,23,0,2024-03-03T14:34:19.041Z,male_vraiment_flat_86.wav,0,True,1426,65,féminin,3,0.213129,110.454503
consent,23,0,2024-03-03T14:34:19.041Z,male_vraiment_flat_86.wav,0,True,1426,65,féminin,4,0.284172,38.373367
consent,23,0,2024-03-03T14:34:19.041Z,male_vraiment_flat_86.wav,0,True,1426,65,féminin,5,0.355215,75.992097
consent,23,0,2024-03-03T14:34:19.041Z,male_vraiment_flat_86.wav,0,True,1426,65,féminin,6,0.426259,-87.651019
consent,23,0,2024-03-03T14:34:19.041Z,male_vraiment_flat_132.wav,1,False,1426,65,féminin,0,0.000000,-95.735908
consent,23,0,2024-03-03T14:34:19.041Z,male_vraiment_flat_132.wav,1,False,1426,65,féminin,1,0.071043,84.596174
consent,23,0,2024-03-03T14:34:19.041Z,male_vraiment_flat_132.wav,1,False,1426,65,féminin,2,0.142086,30.815879
consent,23,0,2024-03-03T14:34:19.041Z,male_vraiment_flat_132.wav,1,False,1426,65,féminin,3,0.213129,80.998062
consent,23,0,2024-03-03T14:34:19.041Z,male_vraiment_flat_132.wav,1,False,1426,65,féminin,4,0.284172,4.635713
consent,23,0,2024-03-03T14:34:19.041Z,male_vraiment_flat_132.wav,1,False,1426,65,féminin,5,0.355215,-66.322755
consent,23,0,2024-03-03T14:34:19.041Z,male_vraiment_flat_132.wav,1,False,1426,65,féminin,6,0.426259,13.571979
consent,24,0,2024-03-03T14:34:19.041Z,male_vraiment_flat_71.wav,0,False,2276,65,féminin,0,0.000000,98.558580
consent,24,0,2024-03-03T14:34:19.041Z,male_vraiment_flat_71.wav,0,False,2276,65,féminin,1,0.071043,119.886109
consent,24,0,2024-03-03T14:34:19.041Z,male_vraiment_flat_71.wav,0,False,2276,65,féminin,2,0.142086,-7.976954
consent,24,0,2024-03-03T14:34:19.041Z,male_vraiment_flat_71.wav,0,False,2276,65,féminin,3,0.213129,7.397873
consent,24,0,2024-03-03T14:34:19.041Z,male_vraiment_flat_71.wav,0,False,2276,65,féminin,4,0.284172,8.946833
consent,24,0,2024-03-03T14:34:19.041Z,male_vraiment_flat_71.wav,0,False,2276,65,féminin,5,0.355215,-77.850016
consent,24,0,2024-03-03T14:34:19.041Z,male_vraiment_flat_71.wav,0,False,2276,65,féminin,6,0.426259,-8.433981
consent,24,0,2024-03-03T14:34:19.041Z,male_vraiment_flat_56.wav,1,True,2276,65,féminin,0,0.000000,30.953431
consent,24,0,2024-03-03T14:34:19.041Z,male_vraiment_flat_56.wav,1,True,2276,65,féminin,1,0.071043,-50.543389
consent,24,0,2024-03-03T14:34:19.041Z,male_vraiment_flat_56.wav,1,True,2276,65,féminin,2,0.142086,-40.325616
consent,24,0,2024-03-03T14:34:19.041Z,male_vraiment_flat_56.wav,1,True,2276,65,féminin,3,0.213129,130.397773
consent,24,0,2024-03-03T14:34:19.041Z,male_vraiment_flat_56.wav,1,True,2276,65,féminin,4,0.284172,-66.278306
consent,24,0,2024-03-03T14:34:19.041Z,male_vraiment_flat_56.wav,1,True,2276,65,féminin,5,0.355215,127.583751
consent,24,0,2024-03-03T14:34:19.041Z,male_vraiment_flat_56.wav,1,True,2276,65,féminin,6,0.426259,-120.769688
consent,25,0,2024-03-03T14:34:19.041Z,male_vraiment_flat_173.wav,0,False,1622,65,féminin,0,0.000000,-99.731768
consent,25,0,2024-03-03T14:34:19.041Z,male_vraiment_flat_173.wav,0,False,1622,65,féminin,1,0.071043,-42.486722
consent,25,0,2024-03-03T14:34:19.041Z,male_vraiment_flat_173.wav,0,False,1622,65,féminin,2,0.142086,49.610636
consent,25,0,2024-03-03T14:34:19.041Z,male_vraiment_flat_173.wav,0,False,1622,65,féminin,3,0.213129,-115.961177
consent,25,0,2024-03-03T14:34:19.041Z,male_vraiment_flat_173.wav,0,False,1622,65,féminin,4,0.284172,-68.693255
consent,25,0,2024-03-03T14:34:19.041Z,male_vraiment_flat_173.wav,0,False,1622,65,féminin,5,0.355215,105.434903
consent,25,0,2024-03-03T14:34:19.041Z,male_vraiment_flat_173.wav,0,False,1622,65,féminin,6,0.426259,5.248120
consent,25,0,2024-03-03T14:34:19.041Z,male_vraiment_flat_160.wav,1,True,1622,65,féminin,0,0.000000,21.342691
consent,25,0,2024-03-03T14:34:19.041Z,male_vraiment_flat_160.wav,1,True,1622,65,féminin,1,0.071043,-76.780347
consent,25,0,2024-03-03T14:34:19.041Z,male_vraiment_flat_160.wav,1,True,1622,65,féminin,2,0.142086,-127.843887
consent,25,0,2024-03-03T14:34:19.041Z,male_vraiment_flat_160.wav,1,True,1622,65,féminin,3,0.213129,-126.126744
consent,25,0,2024-03-03T14:34:19.041Z,male_vraiment_flat_160.wav,1,True,1622,65,féminin,4,0.284172,-33.722090
consent,25,0,2024-03-03T14:34:19.041Z,male_vraiment_flat_160.wav,1,True,1622,65,féminin,5,0.355215,18.600024
consent,25,0,2024-03-03T14:34:19.041Z,male_vraiment_flat_160.wav,1,True,1622,65,féminin,6,0.426259,-57.157597
consent,26,0,2024-03-03T14:34:19.041Z,male_vraiment_flat_145.wav,0,True,3590,65,féminin,0,0.000000,-57.363512
consent,26,0,2024-03-03T14:34:19.041Z,male_vraiment_flat_145.wav,0,True,3590,65,féminin,1,0.071043,98.212837
consent,26,0,2024-03-03T14:34:19.041Z,male_vraiment_flat_145.wav,0,True,3590,65,féminin,2,0.142086,141.769894
consent,26,0,2024-03-03T14:34:19.041Z,male_vraiment_flat_145.wav,0,True,3590,65,féminin,3,0.213129,137.732142
consent,26,0,2024-03-03T14:34:19.041Z,male_vraiment_flat_145.wav,0,True,3590,65,féminin,4,0.284172,20.834317
consent,26,0,2024-03-03T14:34:19.041Z,male_vraiment_flat_145.wav,0,True,3590,65,féminin,5,0.355215,-134.972350
consent,26,0,2024-03-03T14:34:19.041Z,male_vraiment_flat_145.wav,0,True,3590,65,féminin,6,0.426259,-28.162434
consent,26,0,2024-03-03T14:34:19.041Z,male_vraiment_flat_103.wav,1,False,3590,65,féminin,0,0.000000,107.674069
consent,26,0,2024-03-03T14:34:19.041Z,male_vraiment_flat_103.wav,1,False,3590,65,féminin,1,0.071043,149.413476
consent,26,0,2024-03-03T14:34:19.041Z,male_vraiment_flat_103.wav,1,False,3590,65,féminin,2,0.142086,-1.049319
consent,26,0,2024-03-03T14:34:19.041Z,male_vraiment_flat_103.wav,1,False,3590,65,féminin,3,0.213129,-7.353867
consent,26,0,2024-03-03T14:34:19.041Z,male_vraiment_flat_103.wav,1,False,3590,65,féminin,4,0.284172,-2.169492
consent,26,0,2024-03-03T14:34:19.041Z,male_vraiment_flat_103.wav,1,False,3590,65,féminin,5,0.355215,-94.854916
consent,26,0,2024-03-03T14:34:19.041Z,male_vraiment_flat_103.wav,1,False,3590,65,féminin,6,0.426259,119.487430
consent,27,0,2024-03-03T14:34:19.041Z,male_vraiment_flat_104.wav,0,True,1552,65,féminin,0,0.000000,-70.174686
consent,27,0,2024-03-03T14:34:19.041Z,male_vraiment_flat_104.wav,0,True,1552,65,féminin,1,0.071043,-64.753986
consent,27,0,2024-03-03T14:34:19.041Z,male_vraiment_flat_104.wav,0,True,1552,65,féminin,2,0.142086,-116.293490
consent,27,0,2024-03-03T14:34:19.041Z,male_vraiment_flat_104.wav,0,True,1552,65,féminin,3,0.213129,-63.059369
consent,27,0,2024-03-03T14:34:19.041Z,male_vraiment_flat_104.wav,0,True,1552,65,féminin,4,0.284172,102.899256
consent,27,0,2024-03-03T14:34:19.041Z,male_vraiment_flat_104.wav,0,True,1552,65,féminin,5,0.355215,-142.936640
consent,27,0,2024-03-03T14:34:19.041Z,male_vraiment_flat_104.wav,0,True,1552,65,féminin,6,0.426259,-16.173865
consent,27,0,2024-03-03T14:34:19.041Z,male_vraiment_flat_94.wav,1,False,1552,65,féminin,0,0.000000,-0.652128
consent,27,0,2024-03-03T14:34:19.041Z,male_vraiment_flat_94.wav,1,False,1552,65,féminin,1,0.071043,97.860897
consent,27,0,2024-03-03T14:34:19.041Z,male_vraiment_flat_94.wav,1,False,1552,65,féminin,2,0.142086,48.932214
consent,27,0,2024-03-03T14:34:19.041Z,male_vraiment_flat_94.wav,1,False,1552,65,féminin,3,0.213129,-23.097711
consent,27,0,2024-03-03T14:34:19.041Z,male_vraiment_flat_94.wav,1,False,1552,65,féminin,4,0.284172,-47.481676
consent,27,0,2024-03-03T14:34:19.041Z,male_vraiment_flat_94.wav,1,False,1552,65,féminin,5,0.355215,-120.450621
consent,27,0,2024-03-03T14:34:19.041Z,male_vraiment_flat_94.wav,1,False,1552,65,féminin,6,0.426259,-116.887604
consent,28,0,2024-03-03T14:34:19.041Z,male_vraiment_flat_43.wav,0,True,891,65,féminin,0,0.000000,49.290737
consent,28,0,2024-03-03T14:34:19.041Z,male_vraiment_flat_43.wav,0,True,891,65,féminin,1,0.071043,5.814602
consent,28,0,2024-03-03T14:34:19.041Z,male_vraiment_flat_43.wav,0,True,891,65,féminin,2,0.142086,-14.528706
consent,28,0,2024-03-03T14:34:19.041Z,male_vraiment_flat_43.wav,0,True,891,65,féminin,3,0.213129,53.076799
consent,28,0,2024-03-03T14:34:19.041Z,male_vraiment_flat_43.wav,0,True,891,65,féminin,4,0.284172,-30.290069
consent,28,0,2024-03-03T14:34:19.041Z,male_vraiment_flat_43.wav,0,True,891,65,féminin,5,0.355215,134.741064
consent,28,0,2024-03-03T14:34:19.041Z,male_vraiment_flat_43.wav,0,True,891,65,féminin,6,0.426259,54.746527
consent,28,0,2024-03-03T14:34:19.041Z,male_vraiment_flat_174.wav,1,False,891,65,féminin,0,0.000000,12.449350
consent,28,0,2024-03-03T14:34:19.041Z,male_vraiment_flat_174.wav,1,False,891,65,féminin,1,0.071043,17.986555
consent,28,0,2024-03-03T14:34:19.041Z,male_vraiment_flat_174.wav,1,False,891,65,féminin,2,0.142086,-72.720888
consent,28,0,2024-03-03T14:34:19.041Z,male_vraiment_flat_174.wav,1,False,891,65,féminin,3,0.213129,41.369679
consent,28,0,2024-03-03T14:34:19.041Z,male_vraiment_flat_174.wav,1,False,891,65,féminin,4,0.284172,-146.787018
consent,28,0,2024-03-03T14:34:19.041Z,male_vraiment_flat_174.wav,1,False,891,65,féminin,5,0.355215,3.271800
consent,28,0,2024-03-03T14:34:19.041Z,male_vraiment_flat_174.wav,1,False,891,65,féminin,6,0.426259,26.686198
consent,29,0,2024-03-03T14:34:19.041Z,male_vraiment_flat_17.wav,0,True,1531,65,féminin,0,0.000000,91.198655
consent,29,0,2024-03-03T14:34:19.041Z,male_vraiment_flat_17.wav,0,True,1531,65,féminin,1,0.071043,44.952547
consent,29,0,2024-03-03T14:34:19.041Z,male_vraiment_flat_17.wav,0,True,1531,65,féminin,2,0.142086,-82.852461
consent,29,0,2024-03-03T14:34:19.041Z,male_vraiment_flat_17.wav,0,True,1531,65,féminin,3,0.213129,-89.451177
consent,29,0,2024-03-03T14:34:19.041Z,male_vraiment_flat_17.wav,0,True,1531,65,féminin,4,0.284172,-149.534475
consent,29,0,2024-03-03T14:34:19.041Z,male_vraiment_flat_17.wav,0,True,1531,65,féminin,5,0.355215,-107.621144
consent,29,0,2024-03-03T14:34:19.041Z,male_vraiment_flat_17.wav,0,True,1531,65,féminin,6,0.426259,-93.535165
consent,29,0,2024-03-03T14:34:19.041Z,male_vraiment_flat_107.wav,1,False,1531,65,féminin,0,0.000000,147.824484
consent,29,0,2024-03-03T14:34:19.041Z,male_vraiment_flat_107.wav,1,False,1531,65,féminin,1,0.071043,-35.753560
consent,29,0,2024-03-03T14:34:19.041Z,male_vraiment_flat_107.wav,1,False,1531,65,féminin,2,0.142086,-17.671801
consent,29,0,2024-03-03T14:34:19.041Z,male_vraiment_flat_107.wav,1,False,1531,65,féminin,3,0.213129,145.037411
consent,29,0,2024-03-03T14:34:19.041Z,male_vraiment_flat_107.wav,1,False,1531,65,féminin,4,0.284172,17.430899
consent,29,0,2024-03-03T14:34:19.041Z,male_vraiment_flat_107.wav,1,False,1531,65,féminin,5,0.355215,-34.827913
consent,29,0,2024-03-03T14:34:19.041Z,male_vraiment_flat_107.wav,1,False,1531,65,féminin,6,0.426259,-148.430397
consent,30,0,2024-03-03T14:34:19.041Z,male_vraiment_flat_138.wav,0,True,3202,65,féminin,0,0.000000,-29.536298
consent,30,0,2024-03-03T14:34:19.041Z,male_vraiment_flat_138.wav,0,True,3202,65,féminin,1,0.071043,90.685935
consent,30,0,2024-03-03T14:34:19.041Z,male_vraiment_flat_138.wav,0,True,3202,65,féminin,2,0.142086,-77.044346
consent,30,0,2024-03-03T14:34:19.041Z,male_vraiment_flat_138.wav,0,True,3202,65,féminin,3,0.213129,-75.264885
consent,30,0,2024-03-03T14:34:19.041Z,male_vraiment_flat_138.wav,0,True,3202,65,féminin,4,0.284172,-129.490236
consent,30,0,2024-03-03T14:34:19.041Z,male_vraiment_flat_138.wav,0,True,3202,65,féminin,5,0.355215,-48.940612
consent,30,0,2024-03-03T14:34:19.041Z,male_vraiment_flat_138.wav,0,True,3202,65,féminin,6,0.426259,-95.647001
consent,30,0,2024-03-03T14:34:19.041Z,male_vraiment_flat_79.wav,1,False,3202,65,féminin,0,0.000000,-102.946331
consent,30,0,2024-03-03T14:34:19.041Z,male_vraiment_flat_79.wav,1,False,3202,65,féminin,1,0.071043,143.002978
consent,30,0,2024-03-03T14:34:19.041Z,male_vraiment_flat_79.wav,1,False,3202,65,féminin,2,0.142086,-77.255333
consent,30,0,2024-03-03T14:34:19.041Z,male_vraiment_flat_79.wav,1,False,3202,65,féminin,3,0.213129,139.308503
consent,30,0,2024-03-03T14:34:19.041Z,male_vraiment_flat_79.wav,1,False,3202,65,féminin,4,0.284172,53.797207
consent,30,0,2024-03-03T14:34:19.041Z,male_vraiment_flat_79.wav,1,False,3202,65,féminin,5,0.355215,-97.855801
consent,30,0,2024-03-03T14:34:19.041Z,male_vraiment_flat_79.wav,1,False,3202,65,féminin,6,0.426259,15.451057
consent,31,0,2024-03-03T14:34:19.041Z,male_vraiment_flat_151.wav,0,False,1927,65,féminin,0,0.000000,-67.748525
consent,31,0,2024-03-03T14:34:19.041Z,male_vraiment_flat_151.wav,0,False,1927,65,féminin,1,0.071043,54.361913
consent,31,0,2024-03-03T14:34:19.041Z,male_vraiment_flat_151.wav,0,False,1927,65,féminin,2,0.142086,-48.392138
consent,31,0,2024-03-03T14:34:19.041Z,male_vraiment_flat_151.wav,0,False,1927,65,féminin,3,0.213129,35.257299
consent,31,0,2024-03-03T14:34:19.041Z,male_vraiment_flat_151.wav,0,False,1927,65,féminin,4,0.284172,30.428121
consent,31,0,2024-03-03T14:34:19.041Z,male_vraiment_flat_151.wav,0,False,1927,65,féminin,5,0.355215,28.910983
consent,31,0,2024-03-03T14:34:19.041Z,male_vraiment_flat_151.wav,0,False,1927,65,féminin,6,0.426259,-22.593444
consent,31,0,2024-03-03T14:34:19.041Z,male_vraiment_flat_2.wav,1,True,1927,65,féminin,0,0.000000,-26.280713
consent,31,0,2024-03-03T14:34:19.041Z,male_vraiment_flat_2.wav,1,True,1927,65,féminin,1,0.071043,83.932106
consent,31,0,2024-03-03T14:34:19.041Z,male_vraiment_flat_2.wav,1,True,1927,65,féminin,2,0.142086,59.369452
consent,31,0,2024-03-03T14:34:19.041Z,male_vraiment_flat_2.wav,1,True,1927,65,féminin,3,0.213129,8.881156
consent,31,0,2024-03-03T14:34:19.041Z,male_vraiment_flat_2.wav,1,True,1927,65,féminin,4,0.284172,3.498385
consent,31,0,2024-03-03T14:34:19.041Z,male_vraiment_flat_2.wav,1,True,1927,65,féminin,5,0.355215,-133.430007
consent,31,0,2024-03-03T14:34:19.041Z,male_vraiment_flat_2.wav,1,True,1927,65,féminin,6,0.426259,94.606197
consent,32,0,2024-03-03T14:34:19.041Z,male_vraiment_flat_52.wav,0,True,1532,65,féminin,0,0.000000,-133.801400
consent,32,0,2024-03-03T14:34:19.041Z,male_vraiment_flat_52.wav,0,True,1532,65,féminin,1,0.071043,34.189717
consent,32,0,2024-03-03T14:34:19.041Z,male_vraiment_flat_52.wav,0,True,1532,65,féminin,2,0.142086,-145.714669
consent,32,0,2024-03-03T14:34:19.041Z,male_vraiment_flat_52.wav,0,True,1532,65,féminin,3,0.213129,1.717896
consent,32,0,2024-03-03T14:34:19.041Z,male_vraiment_flat_52.wav,0,True,1532,65,féminin,4,0.284172,99.036025
consent,32,0,2024-03-03T14:34:19.041Z,male_vraiment_flat_52.wav,0,True,1532,65,féminin,5,0.355215,56.473042
consent,32,0,2024-03-03T14:34:19.041Z,male_vraiment_flat_52.wav,0,True,1532,65,féminin,6,0.426259,113.578937
consent,32,0,2024-03-03T14:34:19.041Z,male_vraiment_flat_49.wav,1,False,1532,65,féminin,0,0.000000,-83.600042
consent,32,0,2024-03-03T14:34:19.041Z,male_vraiment_flat_49.wav,1,False,1532,65,féminin,1,0.071043,-14.728623
consent,32,0,2024-03-03T14:34:19.041Z,male_vraiment_flat_49.wav,1,False,1532,65,féminin,2,0.142086,25.142138
consent,32,0,2024-03-03T14:34:19.041Z,male_vraiment_flat_49.wav,1,False,1532,65,féminin,3,0.213129,135.875151
consent,32,0,2024-03-03T14:34:19.041Z,male_vraiment_flat_49.wav,1,False,1532,65,féminin,4,0.284172,60.117986
consent,32,0,2024-03-03T14:34:19.041Z,male_vraiment_flat_49.wav,1,False,1532,65,féminin,5,0.355215,-135.086661
consent,32,0,2024-03-03T14:34:19.041Z,male_vraiment_flat_49.wav,1,False,1532,65,féminin,6,0.426259,-32.809615
consent,33,0,2024-03-03T14:34:19.041Z,male_vraiment_flat_170.wav,0,True,1162,65,féminin,0,0.000000,88.489327
consent,33,0,2024-03-03T14:34:19.041Z,male_vraiment_flat_170.wav,0,True,1162,65,féminin,1,0.071043,-76.759591
consent,33,0,2024-03-03T14:34:19.041Z,male_vraiment_flat_170.wav,0,True,1162,65,féminin,2,0.142086,131.535458
consent,33,0,2024-03-03T14:34:19.041Z,male_vraiment_flat_170.wav,0,True,1162,65,féminin,3,0.213129,-66.304272
consent,33,0,2024-03-03T14:34:19.041Z,male_vraiment_flat_170.wav,0,True,1162,65,féminin,4,0.284172,82.842237
consent,33,0,2024-03-03T14:34:19.041Z,male_vraiment_flat_170.wav,0,True,1162,65,féminin,5,0.355215,39.682087
consent,33,0,2024-03-03T14:34:19.041Z,male_vraiment_flat_170.wav,0,True,1162,65,féminin,6,0.426259,-39.313076
consent,33,0,2024-03-03T14:34:19.041Z,male_vraiment_flat_97.wav,1,False,1162,65,féminin,0,0.000000,-82.753908
consent,33,0,2024-03-03T14:34:19.041Z,male_vraiment_flat_97.wav,1,False,1162,65,féminin,1,0.071043,-85.130238
consent,33,0,2024-03-03T14:34:19.041Z,male_vraiment_flat_97.wav,1,False,1162,65,féminin,2,0.142086,-72.001027
consent,33,0,2024-03-03T14:34:19.041Z,male_vraiment_flat_97.wav,1,False,1162,65,féminin,3,0.213129,-75.442204
consent,33,0,2024-03-03T14:34:19.041Z,male_vraiment_flat_97.wav,1,False,1162,65,féminin,4,0.284172,147.061792
consent,33,0,2024-03-03T14:34:19.041Z,male_vraiment_flat_97.wav,1,False,1162,65,féminin,5,0.355215,126.876511
consent,33,0,2024-03-03T14:34:19.041Z,male_vraiment_flat_97.wav,1,False,1162,65,féminin,6,0.426259,96.208887
consent,34,0,2024-03-03T14:34:19.041Z,male_vraiment_flat_176.wav,0,True,575,65,féminin,0,0.000000,-0.886832
consent,34,0,2024-03-03T14:34:19.041Z,male_vraiment_flat_176.wav,0,True,575,65,féminin,1,0.071043,48.604994
consent,34,0,2024-03-03T14:34:19.041Z,male_vraiment_flat_176.wav,0,True,575,65,féminin,2,0.142086,33.352714
consent,34,0,2024-03-03T14:34:19.041Z,male_vraiment_flat_176.wav,0,True,575,65,féminin,3,0.213129,-55.356586
consent,34,0,2024-03-03T14:34:19.041Z,male_vraiment_flat_176.wav,0,True,575,65,féminin,4,0.284172,-13.903711
consent,34,0,2024-03-03T14:34:19.041Z,male_vraiment_flat_176.wav,0,True,575,65,féminin,5,0.355215,54.096530
consent,34,0,2024-03-03T14:34:19.041Z,male_vraiment_flat_176.wav,0,True,575,65,féminin,6,0.426259,-77.791606
consent,34,0,2024-03-03T14:34:19.041Z,male_vraiment_flat_39.wav,1,False,575,65,féminin,0,0.000000,111.266402
consent,34,0,2024-03-03T14:34:19.041Z,male_vraiment_flat_39.wav,1,False,575,65,féminin,1,0.071043,99.799676
consent,34,0,2024-03-03T14:34:19.041Z,male_vraiment_flat_39.wav,1,False,575,65,féminin,2,0.142086,45.272629
consent,34,0,2024-03-03T14:34:19.041Z,male_vraiment_flat_39.wav,1,False,575,65,féminin,3,0.213129,-145.406877
consent,34,0,2024-03-03T14:34:19.041Z,male_vraiment_flat_39.wav,1,False,575,65,féminin,4,0.284172,46.363124
consent,34,0,2024-03-03T14:34:19.041Z,male_vraiment_flat_39.wav,1,False,575,65,féminin,5,0.355215,90.908213
consent,34,0,2024-03-03T14:34:19.041Z,male_vraiment_flat_39.wav,1,False,575,65,féminin,6,0.426259,-13.802222
consent,35,0,2024-03-03T14:34:19.041Z,male_vraiment_flat_45.wav,0,True,560,65,féminin,0,0.000000,-108.869549
consent,35,0,2024-03-03T14:34:19.041Z,male_vraiment_flat_45.wav,0,True,560,65,féminin,1,0.071043,-22.660114
consent,35,0,2024-03-03T14:34:19.041Z,male_vraiment_flat_45.wav,0,True,560,65,féminin,2,0.142086,-141.096375
consent,35,0,2024-03-03T14:34:19.041Z,male_vraiment_flat_45.wav,0,True,560,65,féminin,3,0.213129,-24.815065
consent,35,0,2024-03-03T14:34:19.041Z,male_vraiment_flat_45.wav,0,True,560,65,féminin,4,0.284172,102.804681
consent,35,0,2024-03-03T14:34:19.041Z,male_vraiment_flat_45.wav,0,True,560,65,féminin,5,0.355215,112.365201
consent,35,0,2024-03-03T14:34:19.041Z,male_vraiment_flat_45.wav,0,True,560,65,féminin,6,0.426259,95.196821
consent,35,0,2024-03-03T14:34:19.041Z,male_vraiment_flat_15.wav,1,False,560,65,féminin,0,0.000000,-99.515509
consent,35,0,2024-03-03T14:34:19.041Z,male_vraiment_flat_15.wav,1,False,560,65,féminin,1,0.071043,-34.266668
consent,35,0,2024-03-03T14:34:19.041Z,male_vraiment_flat_15.wav,1,False,560,65,féminin,2,0.142086,14.847828
consent,35,0,2024-03-03T14:34:19.041Z,male_vraiment_flat_15.wav,1,False,560,65,féminin,3,0.213129,69.933849
consent,35,0,2024-03-03T14:34:19.041Z,male_vraiment_flat_15.wav,1,False,560,65,féminin,4,0.284172,112.308778
consent,35,0,2024-03-03T14:34:19.041Z,male_vraiment_flat_15.wav,1,False,560,65,féminin,5,0.355215,84.391608
consent,35,0,2024-03-03T14:34:19.041Z,male_vraiment_flat_15.wav,1,False,560,65,féminin,6,0.426259,-74.687150
consent,36,0,2024-03-03T14:34:19.041Z,male_vraiment_flat_7.wav,0,True,478,65,féminin,0,0.000000,43.823319
consent,36,0,2024-03-03T14:34:19.041Z,male_vraiment_flat_7.wav,0,True,478,65,féminin,1,0.071043,72.049148
consent,36,0,2024-03-03T14:34:19.041Z,male_vraiment_flat_7.wav,0,True,478,65,féminin,2,0.142086,-136.415247
consent,36,0,2024-03-03T14:34:19.041Z,male_vraiment_flat_7.wav,0,True,478,65,féminin,3,0.213129,44.015310
consent,36,0,2024-03-03T14:34:19.041Z,male_vraiment_flat_7.wav,0,True,478,65,féminin,4,0.284172,7.208530
consent,36,0,2024-03-03T14:34:19.041Z,male_vraiment_flat_7.wav,0,True,478,65,féminin,5,0.355215,18.587432
consent,36,0,2024-03-03T14:34:19.041Z,male_vraiment_flat_7.wav,0,True,478,65,féminin,6,0.426259,60.126473
consent,36,0,2024-03-03T14:34:19.041Z,male_vraiment_flat_3.wav,1,False,478,65,féminin,0,0.000000,139.821339
consent,36,0,2024-03-03T14:34:19.041Z,male_vraiment_flat_3.wav,1,False,478,65,féminin,1,0.071043,-90.088416
consent,36,0,2024-03-03T14:34:19.041Z,male_vraiment_flat_3.wav,1,False,478,65,féminin,2,0.142086,-144.376143
consent,36,0,2024-03-03T14:34:19.041Z,male_vraiment_flat_3.wav,1,False,478,65,féminin,3,0.213129,-83.117215
consent,36,0,2024-03-03T14:34:19.041Z,male_vraiment_flat_3.wav,1,False,478,65,féminin,4,0.284172,-15.266959
consent,36,0,2024-03-03T14:34:19.041Z,male_vraiment_flat_3.wav,1,False,478,65,féminin,5,0.355215,-78.645111
consent,36,0,2024-03-03T14:34:19.041Z,male_vraiment_flat_3.wav,1,False,478,65,féminin,6,0.426259,18.566710
consent,37,0,2024-03-03T14:34:19.041Z,male_vraiment_flat_149.wav,0,True,623,65,féminin,0,0.000000,17.402596
consent,37,0,2024-03-03T14:34:19.041Z,male_vraiment_flat_149.wav,0,True,623,65,féminin,1,0.071043,-44.390985
consent,37,0,2024-03-03T14:34:19.041Z,male_vraiment_flat_149.wav,0,True,623,65,féminin,2,0.142086,-32.370244
consent,37,0,2024-03-03T14:34:19.041Z,male_vraiment_flat_149.wav,0,True,623,65,féminin,3,0.213129,33.896100
consent,37,0,2024-03-03T14:34:19.041Z,male_vraiment_flat_149.wav,0,True,623,65,féminin,4,0.284172,130.098177
consent,37,0,2024-03-03T14:34:19.041Z,male_vraiment_flat_149.wav,0,True,623,65,féminin,5,0.355215,-117.346579
consent,37,0,2024-03-03T14:34:19.041Z,male_vraiment_flat_149.wav,0,True,623,65,féminin,6,0.426259,65.375118
consent,37,0,2024-03-03T14:34:19.041Z,male_vraiment_flat_180.wav,1,False,623,65,féminin,0,0.000000,-17.910938
consent,37,0,2024-03-03T14:34:19.041Z,male_vraiment_flat_180.wav,1,False,623,65,féminin,1,0.071043,24.825304
consent,37,0,2024-03-03T14:34:19.041Z,male_vraiment_flat_180.wav,1,False,623,65,féminin,2,0.142086,-141.305904
consent,37,0,2024-03-03T14:34:19.041Z,male_vraiment_flat_180.wav,1,False,623,65,féminin,3,0.213129,39.379988
consent,37,0,2024-03-03T14:34:19.041Z,male_vraiment_flat_180.wav,1,False,623,65,féminin,4,0.284172,-132.932424
consent,37,0,2024-03-03T14:34:19.041Z,male_vraiment_flat_180.wav,1,False,623,65,féminin,5,0.355215,-6.123363
consent,37,0,2024-03-03T14:34:19.041Z,male_vraiment_flat_180.wav,1,False,623,65,féminin,6,0.426259,-0.737662
consent,38,0,2024-03-03T14:34:19.041Z,male_vraiment_flat_25.wav,0,True,691,65,féminin,0,0.000000,-129.422108
consent,38,0,2024-03-03T14:34:19.041Z,male_vraiment_flat_25.wav,0,True,691,65,féminin,1,0.071043,-12.331663
consent,38,0,2024-03-03T14:34:19.041Z,male_vraiment_flat_25.wav,0,True,691,65,féminin,2,0.142086,-97.065740
consent,38,0,2024-03-03T14:34:19.041Z,male_vraiment_flat_25.wav,0,True,691,65,féminin,3,0.213129,-6.253122
consent,38,0,2024-03-03T14:34:19.041Z,male_vraiment_flat_25.wav,0,True,691,65,féminin,4,0.284172,31.933743
consent,38,0,2024-03-03T14:34:19.041Z,male_vraiment_flat_25.wav,0,True,691,65,féminin,5,0.355215,-58.415946
consent,38,0,2024-03-03T14:34:19.041Z,male_vraiment_flat_25.wav,0,True,691,65,féminin,6,0.426259,117.143598
consent,38,0,2024-03-03T14:34:19.041Z,male_vraiment_flat_110.wav,1,False,691,65,féminin,0,0.000000,-78.850505
consent,38,0,2024-03-03T14:34:19.041Z,male_vraiment_flat_110.wav,1,False,691,65,féminin,1,0.071043,-96.953533
consent,38,0,2024-03-03T14:34:19.041Z,male_vraiment_flat_110.wav,1,False,691,65,féminin,2,0.142086,-38.365791
consent,38,0,2024-03-03T14:34:19.041Z,male_vraiment_flat_110.wav,1,False,691,65,féminin,3,0.213129,77.506607
consent,38,0,2024-03-03T14:34:19.041Z,male_vraiment_flat_110.wav,1,False,691,65,féminin,4,0.284172,-64.506238
consent,38,0,2024-03-03T14:34:19.041Z,male_vraiment_flat_110.wav,1,False,691,65,féminin,5,0.355215,15.353748
consent,38,0,2024-03-03T14:34:19.041Z,male_vraiment_flat_110.wav,1,False,691,65,féminin,6,0.426259,121.287299
consent,39,0,2024-03-03T14:34:19.041Z,male_vraiment_flat_168.wav,0,True,656,65,féminin,0,0.000000,20.996757
consent,39,0,2024-03-03T14:34:19.041Z,male_vraiment_flat_168.wav,0,True,656,65,féminin,1,0.071043,53.221671
consent,39,0,2024-03-03T14:34:19.041Z,male_vraiment_flat_168.wav,0,True,656,65,féminin,2,0.142086,15.731623
consent,39,0,2024-03-03T14:34:19.041Z,male_vraiment_flat_168.wav,0,True,656,65,féminin,3,0.213129,99.382807
consent,39,0,2024-03-03T14:34:19.041Z,male_vraiment_flat_168.wav,0,True,656,65,féminin,4,0.284172,-57.914754
consent,39,0,2024-03-03T14:34:19.041Z,male_vraiment_flat_168.wav,0,True,656,65,féminin,5,0.355215,26.961730
consent,39,0,2024-03-03T14:34:19.041Z,male_vraiment_flat_168.wav,0,True,656,65,féminin,6,0.426259,-63.149674
consent,39,0,2024-03-03T14:34:19.041Z,male_vraiment_flat_195.wav,1,False,656,65,féminin,0,0.000000,-54.423844
consent,39,0,2024-03-03T14:34:19.041Z,male_vraiment_flat_195.wav,1,False,656,65,féminin,1,0.071043,81.067183
consent,39,0,2024-03-03T14:34:19.041Z,male_vraiment_flat_195.wav,1,False,656,65,féminin,2,0.142086,-60.396049
consent,39,0,2024-03-03T14:34:19.041Z,male_vraiment_flat_195.wav,1,False,656,65,féminin,3,0.213129,-65.685418
consent,39,0,2024-03-03T14:34:19.041Z,male_vraiment_flat_195.wav,1,False,656,65,féminin,4,0.284172,141.607211
consent,39,0,2024-03-03T14:34:19.041Z,male_vraiment_flat_195.wav,1,False,656,65,féminin,5,0.355215,37.879388
consent,39,0,2024-03-03T14:34:19.041Z,male_vraiment_flat_195.wav,1,False,656,65,féminin,6,0.426259,-52.972183
consent,40,0,2024-03-03T14:34:19.041Z,male_vraiment_flat_84.wav,0,True,1420,65,féminin,0,0.000000,79.222174
consent,40,0,2024-03-03T14:34:19.041Z,male_vraiment_flat_84.wav,0,True,1420,65,féminin,1,0.071043,61.816109
consent,40,0,2024-03-03T14:34:19.041Z,male_vraiment_flat_84.wav,0,True,1420,65,féminin,2,0.142086,-111.712238
consent,40,0,2024-03-03T14:34:19.041Z,male_vraiment_flat_84.wav,0,True,1420,65,féminin,3,0.213129,96.584947
consent,40,0,2024-03-03T14:34:19.041Z,male_vraiment_flat_84.wav,0,True,1420,65,féminin,4,0.284172,-11.292098
consent,40,0,2024-03-03T14:34:19.041Z,male_vraiment_flat_84.wav,0,True,1420,65,féminin,5,0.355215,57.720124
consent,40,0,2024-03-03T14:34:19.041Z,male_vraiment_flat_84.wav,0,True,1420,65,féminin,6,0.426259,-122.021307
consent,40,0,2024-03-03T14:34:19.041Z,male_vraiment_flat_69.wav,1,False,1420,65,féminin,0,0.000000,-3.170538
consent,40,0,2024-03-03T14:34:19.041Z,male_vraiment_flat_69.wav,1,False,1420,65,féminin,1,0.071043,35.318973
consent,40,0,2024-03-03T14:34:19.041Z,male_vraiment_flat_69.wav,1,False,1420,65,féminin,2,0.142086,9.650212
consent,40,0,2024-03-03T14:34:19.041Z,male_vraiment_flat_69.wav,1,False,1420,65,féminin,3,0.213129,140.461686
consent,40,0,2024-03-03T14:34:19.041Z,male_vraiment_flat_69.wav,1,False,1420,65,féminin,4,0.284172,-72.489288
consent,40,0,2024-03-03T14:34:19.041Z,male_vraiment_flat_69.wav,1,False,1420,65,féminin,5,0.355215,-111.567531
consent,40,0,2024-03-03T14:34:19.041Z,male_vraiment_flat_69.wav,1,False,1420,65,féminin,6,0.426259,62.840145
consent,41,0,2024-03-03T14:34:19.041Z,male_vraiment_flat_120.wav,0,False,1617,65,féminin,0,0.000000,20.081065
consent,41,0,2024-03-03T14:34:19.041Z,male_vraiment_flat_120.wav,0,False,1617,65,féminin,1,0.071043,100.844988
consent,41,0,2024-03-03T14:34:19.041Z,male_vraiment_flat_120.wav,0,False,1617,65,féminin,2,0.142086,-34.199178
consent,41,0,2024-03-03T14:34:19.041Z,male_vraiment_flat_120.wav,0,False,1617,65,féminin,3,0.213129,-3.979999
consent,41,0,2024-03-03T14:34:19.041Z,male_vraiment_flat_120.wav,0,False,1617,65,féminin,4,0.284172,-132.448085
consent,41,0,2024-03-03T14:34:19.041Z,male_vraiment_flat_120.wav,0,False,1617,65,féminin,5,0.355215,-95.704719
consent,41,0,2024-03-03T14:34:19.041Z,male_vraiment_flat_120.wav,0,False,1617,65,féminin,6,0.426259,-2.125632
consent,41,0,2024-03-03T14:34:19.041Z,male_vraiment_flat_133.wav,1,True,1617,65,féminin,0,0.000000,-33.116176
consent,41,0,2024-03-03T14:34:19.041Z,male_vraiment_flat_133.wav,1,True,1617,65,féminin,1,0.071043,-79.722902
consent,41,0,2024-03-03T14:34:19.041Z,male_vraiment_flat_133.wav,1,True,1617,65,féminin,2,0.142086,-0.174059
consent,41,0,2024-03-03T14:34:19.041Z,male_vraiment_flat_133.wav,1,True,1617,65,féminin,3,0.213129,82.274364
consent,41,0,2024-03-03T14:34:19.041Z,male_vraiment_flat_133.wav,1,True,1617,65,féminin,4,0.284172,-109.731995
consent,41,0,2024-03-03T14:34:19.041Z,male_vraiment_flat_133.wav,1,True,1617,65,féminin,5,0.355215,-72.489270
consent,41,0,2024-03-03T14:34:19.041Z,male_vraiment_flat_133.wav,1,True,1617,65,féminin,6,0.426259,11.511705
consent,42,0,2024-03-03T14:34:19.041Z,male_vraiment_flat_144.wav,0,True,503,65,féminin,0,0.000000,-68.167624
consent,42,0,2024-03-03T14:34:19.041Z,male_vraiment_flat_144.wav,0,True,503,65,féminin,1,0.071043,-79.458647
consent,42,0,2024-03-03T14:34:19.041Z,male_vraiment_flat_144.wav,0,True,503,65,féminin,2,0.142086,-79.660425
consent,42,0,2024-03-03T14:34:19.041Z,male_vraiment_flat_144.wav,0,True,503,65,féminin,3,0.213129,60.124898
consent,42,0,2024-03-03T14:34:19.041Z,male_vraiment_flat_144.wav,0,True,503,65,féminin,4,0.284172,21.367664
consent,42,0,2024-03-03T14:34:19.041Z,male_vraiment_flat_144.wav,0,True,503,65,féminin,5,0.355215,44.158096
consent,42,0,2024-03-03T14:34:19.041Z,male_vraiment_flat_144.wav,0,True,503,65,féminin,6,0.426259,60.089593
consent,42,0,2024-03-03T14:34:19.041Z,male_vraiment_flat_80.wav,1,False,503,65,féminin,0,0.000000,74.549472
consent,42,0,2024-03-03T14:34:19.041Z,male_vraiment_flat_80.wav,1,False,503,65,féminin,1,0.071043,28.548945
consent,42,0,2024-03-03T14:34:19.041Z,male_vraiment_flat_80.wav,1,False,503,65,féminin,2,0.142086,-70.639605
consent,42,0,2024-03-03T14:34:19.041Z,male_vraiment_flat_80.wav,1,False,503,65,féminin,3,0.213129,105.678511
consent,42,0,2024-03-03T14:34:19.041Z,male_vraiment_flat_80.wav,1,False,503,65,féminin,4,0.284172,54.429698
consent,42,0,2024-03-03T14:34:19.041Z,male_vraiment_flat_80.wav,1,False,503,65,féminin,5,0.355215,38.972413
consent,42,0,2024-03-03T14:34:19.041Z,male_vraiment_flat_80.wav,1,False,503,65,féminin,6,0.426259,36.313071
consent,43,0,2024-03-03T14:34:19.041Z,male_vraiment_flat_122.wav,0,True,450,65,féminin,0,0.000000,-51.664448
consent,43,0,2024-03-03T14:34:19.041Z,male_vraiment_flat_122.wav,0,True,450,65,féminin,1,0.071043,-83.789448
consent,43,0,2024-03-03T14:34:19.041Z,male_vraiment_flat_122.wav,0,True,450,65,féminin,2,0.142086,-129.204529
consent,43,0,2024-03-03T14:34:19.041Z,male_vraiment_flat_122.wav,0,True,450,65,féminin,3,0.213129,-2.729810
consent,43,0,2024-03-03T14:34:19.041Z,male_vraiment_flat_122.wav,0,True,450,65,féminin,4,0.284172,-63.338530
consent,43,0,2024-03-03T14:34:19.041Z,male_vraiment_flat_122.wav,0,True,450,65,féminin,5,0.355215,57.342517
consent,43,0,2024-03-03T14:34:19.041Z,male_vraiment_flat_122.wav,0,True,450,65,féminin,6,0.426259,30.309816
consent,43,0,2024-03-03T14:34:19.041Z,male_vraiment_flat_28.wav,1,False,450,65,féminin,0,0.000000,82.321174
consent,43,0,2024-03-03T14:34:19.041Z,male_vraiment_flat_28.wav,1,False,450,65,féminin,1,0.071043,-139.171806
consent,43,0,2024-03-03T14:34:19.041Z,male_vraiment_flat_28.wav,1,False,450,65,féminin,2,0.142086,-25.451767
consent,43,0,2024-03-03T14:34:19.041Z,male_vraiment_flat_28.wav,1,False,450,65,féminin,3,0.213129,-113.179723
consent,43,0,2024-03-03T14:34:19.041Z,male_vraiment_flat_28.wav,1,False,450,65,féminin,4,0.284172,-97.955774
consent,43,0,2024-03-03T14:34:19.041Z,male_vraiment_flat_28.wav,1,False,450,65,féminin,5,0.355215,43.444463
consent,43,0,2024-03-03T14:34:19.041Z,male_vraiment_flat_28.wav,1,False,450,65,féminin,6,0.426259,-9.291608
consent,44,0,2024-03-03T14:34:19.041Z,male_vraiment_flat_128.wav,0,True,387,65,féminin,0,0.000000,-144.911109
consent,44,0,2024-03-03T14:34:19.041Z,male_vraiment_flat_128.wav,0,True,387,65,féminin,1,0.071043,-110.844671
consent,44,0,2024-03-03T14:34:19.041Z,male_vraiment_flat_128.wav,0,True,387,65,féminin,2,0.142086,35.068695
consent,44,0,2024-03-03T14:34:19.041Z,male_vraiment_flat_128.wav,0,True,387,65,féminin,3,0.213129,-95.248162
consent,44,0,2024-03-03T14:34:19.041Z,male_vraiment_flat_128.wav,0,True,387,65,féminin,4,0.284172,-45.012706
consent,44,0,2024-03-03T14:34:19.041Z,male_vraiment_flat_128.wav,0,True,387,65,féminin,5,0.355215,79.801624
consent,44,0,2024-03-03T14:34:19.041Z,male_vraiment_flat_128.wav,0,True,387,65,féminin,6,0.426259,-47.761682
consent,44,0,2024-03-03T14:34:19.041Z,male_vraiment_flat_1.wav,1,False,387,65,féminin,0,0.000000,-87.527114
consent,44,0,2024-03-03T14:34:19.041Z,male_vraiment_flat_1.wav,1,False,387,65,féminin,1,0.071043,-24.885537
consent,44,0,2024-03-03T14:34:19.041Z,male_vraiment_flat_1.wav,1,False,387,65,féminin,2,0.142086,25.492299
consent,44,0,2024-03-03T14:34:19.041Z,male_vraiment_flat_1.wav,1,False,387,65,féminin,3,0.213129,-85.109295
consent,44,0,2024-03-03T14:34:19.041Z,male_vraiment_flat_1.wav,1,False,387,65,féminin,4,0.284172,41.982644
consent,44,0,2024-03-03T14:34:19.041Z,male_vraiment_flat_1.wav,1,False,387,65,féminin,5,0.355215,-147.448489
consent,44,0,2024-03-03T14:34:19.041Z,male_vraiment_flat_1.wav,1,False,387,65,féminin,6,0.426259,3.412386
consent,45,0,2024-03-03T14:34:19.041Z,male_vraiment_flat_146.wav,0,False,1292,65,féminin,0,0.000000,92.610651
consent,45,0,2024-03-03T14:34:19.041Z,male_vraiment_flat_146.wav,0,False,1292,65,féminin,1,0.071043,40.250954
consent,45,0,2024-03-03T14:34:19.041Z,male_vraiment_flat_146.wav,0,False,1292,65,féminin,2,0.142086,99.988333
consent,45,0,2024-03-03T14:34:19.041Z,male_vraiment_flat_146.wav,0,False,1292,65,féminin,3,0.213129,115.543405
consent,45,0,2024-03-03T14:34:19.041Z,male_vraiment_flat_146.wav,0,False,1292,65,féminin,4,0.284172,-3.607960
consent,45,0,2024-03-03T14:34:19.041Z,male_vraiment_flat_146.wav,0,False,1292,65,féminin,5,0.355215,-91.494225
consent,45,0,2024-03-03T14:34:19.041Z,male_vraiment_flat_146.wav,0,False,1292,65,féminin,6,0.426259,-109.708123
consent,45,0,2024-03-03T14:34:19.041Z,male_vraiment_flat_165.wav,1,True,1292,65,féminin,0,0.000000,-133.486308
consent,45,0,2024-03-03T14:34:19.041Z,male_vraiment_flat_165.wav,1,True,1292,65,féminin,1,0.071043,-51.704384
consent,45,0,2024-03-03T14:34:19.041Z,male_vraiment_flat_165.wav,1,True,1292,65,féminin,2,0.142086,123.734410
consent,45,0,2024-03-03T14:34:19.041Z,male_vraiment_flat_165.wav,1,True,1292,65,féminin,3,0.213129,-122.063627
consent,45,0,2024-03-03T14:34:19.041Z,male_vraiment_flat_165.wav,1,True,1292,65,féminin,4,0.284172,105.373754
consent,45,0,2024-03-03T14:34:19.041Z,male_vraiment_flat_165.wav,1,True,1292,65,féminin,5,0.355215,42.489978
consent,45,0,2024-03-03T14:34:19.041Z,male_vraiment_flat_165.wav,1,True,1292,65,féminin,6,0.426259,65.536300
consent,46,0,2024-03-03T14:34:19.041Z,male_vraiment_flat_33.wav,0,True,521,65,féminin,0,0.000000,77.429006
consent,46,0,2024-03-03T14:34:19.041Z,male_vraiment_flat_33.wav,0,True,521,65,féminin,1,0.071043,25.170622
consent,46,0,2024-03-03T14:34:19.041Z,male_vraiment_flat_33.wav,0,True,521,65,féminin,2,0.142086,-65.854422
consent,46,0,2024-03-03T14:34:19.041Z,male_vraiment_flat_33.wav,0,True,521,65,féminin,3,0.213129,106.380035
consent,46,0,2024-03-03T14:34:19.041Z,male_vraiment_flat_33.wav,0,True,521,65,féminin,4,0.284172,126.948212
consent,46,0,2024-03-03T14:34:19.041Z,male_vraiment_flat_33.wav,0,True,521,65,féminin,5,0.355215,88.675782
consent,46,0,2024-03-03T14:34:19.041Z,male_vraiment_flat_33.wav,0,True,521,65,féminin,6,0.426259,-129.822255
consent,46,0,2024-03-03T14:34:19.041Z,male_vraiment_flat_102.wav,1,False,521,65,féminin,0,0.000000,-40.599677
consent,46,0,2024-03-03T14:34:19.041Z,male_vraiment_flat_102.wav,1,False,521,65,féminin,1,0.071043,73.648850
consent,46,0,2024-03-03T14:34:19.041Z,male_vraiment_flat_102.wav,1,False,521,65,féminin,2,0.142086,15.923898
consent,46,0,2024-03-03T14:34:19.041Z,male_vraiment_flat_102.wav,1,False,521,65,féminin,3,0.213129,-109.098836
consent,46,0,2024-03-03T14:34:19.041Z,male_vraiment_flat_102.wav,1,False,521,65,féminin,4,0.284172,134.536605
consent,46,0,2024-03-03T14:34:19.041Z,male_vraiment_flat_102.wav,1,False,521,65,féminin,5,0.355215,127.784516
consent,46,0,2024-03-03T14:34:19.041Z,male_vraiment_flat_102.wav,1,False,521,65,féminin,6,0.426259,-136.569602
consent,47,0,2024-03-03T14:34:19.041Z,male_vraiment_flat_57.wav,0,False,1030,65,féminin,0,0.000000,-38.971396
consent,47,0,2024-03-03T14:34:19.041Z,male_vraiment_flat_57.wav,0,False,1030,65,féminin,1,0.071043,127.210639
consent,47,0,2024-03-03T14:34:19.041Z,male_vraiment_flat_57.wav,0,False,1030,65,féminin,2,0.142086,-100.465383
consent,47,0,2024-03-03T14:34:19.041Z,male_vraiment_flat_57.wav,0,False,1030,65,féminin,3,0.213129,-139.526819
consent,47,0,2024-03-03T14:34:19.041Z,male_vraiment_flat_57.wav,0,False,1030,65,féminin,4,0.284172,-149.467980
consent,47,0,2024-03-03T14:34:19.041Z,male_vraiment_flat_57.wav,0,False,1030,65,féminin,5,0.355215,-50.432071
consent,47,0,2024-03-03T14:34:19.041Z,male_vraiment_flat_57.wav,0,False,1030,65,féminin,6,0.426259,15.305878
consent,47,0,2024-03-03T14:34:19.041Z,male_vraiment_flat_68.wav,1,True,1030,65,féminin,0,0.000000,-95.161618
consent,47,0,2024-03-03T14:34:19.041Z,male_vraiment_flat_68.wav,1,True,1030,65,féminin,1,0.071043,-119.152564
consent,47,0,2024-03-03T14:34:19.041Z,male_vraiment_flat_68.wav,1,True,1030,65,féminin,2,0.142086,18.051976
consent,47,0,2024-03-03T14:34:19.041Z,male_vraiment_flat_68.wav,1,True,1030,65,féminin,3,0.213129,-26.870716
consent,47,0,2024-03-03T14:34:19.041Z,male_vraiment_flat_68.wav,1,True,1030,65,féminin,4,0.284172,87.472746
consent,47,0,2024-03-03T14:34:19.041Z,male_vraiment_flat_68.wav,1,True,1030,65,féminin,5,0.355215,-56.607347
consent,47,0,2024-03-03T14:34:19.041Z,male_vraiment_flat_68.wav,1,True,1030,65,féminin,6,0.426259,148.066508
consent,48,0,2024-03-03T14:34:19.041Z,male_vraiment_flat_155.wav,0,True,1188,65,féminin,0,0.000000,-140.284917
consent,48,0,2024-03-03T14:34:19.041Z,male_vraiment_flat_155.wav,0,True,1188,65,féminin,1,0.071043,56.043903
consent,48,0,2024-03-03T14:34:19.041Z,male_vraiment_flat_155.wav,0,True,1188,65,féminin,2,0.142086,-2.142699
consent,48,0,2024-03-03T14:34:19.041Z,male_vraiment_flat_155.wav,0,True,1188,65,féminin,3,0.213129,-41.999388
consent,48,0,2024-03-03T14:34:19.041Z,male_vraiment_flat_155.wav,0,True,1188,65,féminin,4,0.284172,-69.522618
consent,48,0,2024-03-03T14:34:19.041Z,male_vraiment_flat_155.wav,0,True,1188,65,féminin,5,0.355215,29.697532
consent,48,0,2024-03-03T14:34:19.041Z,male_vraiment_flat_155.wav,0,True,1188,65,féminin,6,0.426259,40.565741
consent,48,0,2024-03-03T14:34:19.041Z,male_vraiment_flat_35.wav,1,False,1188,65,féminin,0,0.000000,-80.907759
consent,48,0,2024-03-03T14:34:19.041Z,male_vraiment_flat_35.wav,1,False,1188,65,féminin,1,0.071043,-44.446048
consent,48,0,2024-03-03T14:34:19.041Z,male_vraiment_flat_35.wav,1,False,1188,65,féminin,2,0.142086,-51.579277
consent,48,0,2024-03-03T14:34:19.041Z,male_vraiment_flat_35.wav,1,False,1188,65,féminin,3,0.213129,-66.764099
consent,48,0,2024-03-03T14:34:19.041Z,male_vraiment_flat_35.wav,1,False,1188,65,féminin,4,0.284172,-35.478686
consent,48,0,2024-03-03T14:34:19.041Z,male_vraiment_flat_35.wav,1,False,1188,65,féminin,5,0.355215,-86.823570
consent,48,0,2024-03-03T14:34:19.041Z,male_vraiment_flat_35.wav,1,False,1188,65,féminin,6,0.426259,26.550026
consent,49,0,2024-03-03T14:34:19.041Z,male_vraiment_flat_114.wav,0,True,390,65,féminin,0,0.000000,-107.614700
consent,49,0,2024-03-03T14:34:19.041Z,male_vraiment_flat_114.wav,0,True,390,65,féminin,1,0.071043,-121.606705
consent,49,0,2024-03-03T14:34:19.041Z,male_vraiment_flat_114.wav,0,True,390,65,féminin,2,0.142086,26.820871
consent,49,0,2024-03-03T14:34:19.041Z,male_vraiment_flat_114.wav,0,True,390,65,féminin,3,0.213129,42.957584
consent,49,0,2024-03-03T14:34:19.041Z,male_vraiment_flat_114.wav,0,True,390,65,féminin,4,0.284172,-48.053802
consent,49,0,2024-03-03T14:34:19.041Z,male_vraiment_flat_114.wav,0,True,390,65,féminin,5,0.355215,-10.474627
consent,49,0,2024-03-03T14:34:19.041Z,male_vraiment_flat_114.wav,0,True,390,65,féminin,6,0.426259,-131.069216
consent,49,0,2024-03-03T14:34:19.041Z,male_vraiment_flat_182.wav,1,False,390,65,féminin,0,0.000000,20.855134
consent,49,0,2024-03-03T14:34:19.041Z,male_vraiment_flat_182.wav,1,False,390,65,féminin,1,0.071043,131.000404
consent,49,0,2024-03-03T14:34:19.041Z,male_vraiment_flat_182.wav,1,False,390,65,féminin,2,0.142086,-24.691908
consent,49,0,2024-03-03T14:34:19.041Z,male_vraiment_flat_182.wav,1,False,390,65,féminin,3,0.213129,128.422786
consent,49,0,2024-03-03T14:34:19.041Z,male_vraiment_flat_182.wav,1,False,390,65,féminin,4,0.284172,-128.848387
consent,49,0,2024-03-03T14:34:19.041Z,male_vraiment_flat_182.wav,1,False,390,65,féminin,5,0.355215,118.792618
consent,49,0,2024-03-03T14:34:19.041Z,male_vraiment_flat_182.wav,1,False,390,65,féminin,6,0.426259,-92.475253
consent,50,1,2024-03-03T14:34:19.041Z,male_vraiment_flat_8.wav,0,False,1910,65,féminin,0,0.000000,88.027847
consent,50,1,2024-03-03T14:34:19.041Z,male_vraiment_flat_8.wav,0,False,1910,65,féminin,1,0.071043,-108.976227
consent,50,1,2024-03-03T14:34:19.041Z,male_vraiment_flat_8.wav,0,False,1910,65,féminin,2,0.142086,36.591048
consent,50,1,2024-03-03T14:34:19.041Z,male_vraiment_flat_8.wav,0,False,1910,65,féminin,3,0.213129,7.260113
consent,50,1,2024-03-03T14:34:19.041Z,male_vraiment_flat_8.wav,0,False,1910,65,féminin,4,0.284172,-133.690195
consent,50,1,2024-03-03T14:34:19.041Z,male_vraiment_flat_8.wav,0,False,1910,65,féminin,5,0.355215,9.464811
consent,50,1,2024-03-03T14:34:19.041Z,male_vraiment_flat_8.wav,0,False,1910,65,féminin,6,0.426259,-67.780032
consent,50,1,2024-03-03T14:34:19.041Z,male_vraiment_flat_108.wav,1,True,1910,65,féminin,0,0.000000,92.203113
consent,50,1,2024-03-03T14:34:19.041Z,male_vraiment_flat_108.wav,1,True,1910,65,féminin,1,0.071043,-74.681876
consent,50,1,2024-03-03T14:34:19.041Z,male_vraiment_flat_108.wav,1,True,1910,65,féminin,2,0.142086,-18.773488
consent,50,1,2024-03-03T14:34:19.041Z,male_vraiment_flat_108.wav,1,True,1910,65,féminin,3,0.213129,73.054230
consent,50,1,2024-03-03T14:34:19.041Z,male_vraiment_flat_108.wav,1,True,1910,65,féminin,4,0.284172,-72.824646
consent,50,1,2024-03-03T14:34:19.041Z,male_vraiment_flat_108.wav,1,True,1910,65,féminin,5,0.355215,140.895697
consent,50,1,2024-03-03T14:34:19.041Z,male_vraiment_flat_108.wav,1,True,1910,65,féminin,6,0.426259,13.161932
consent,51,1,2024-03-03T14:34:19.041Z,male_vraiment_flat_161.wav,0,False,2339,65,féminin,0,0.000000,108.108554
consent,51,1,2024-03-03T14:34:19.041Z,male_vraiment_flat_161.wav,0,False,2339,65,féminin,1,0.071043,47.804173
consent,51,1,2024-03-03T14:34:19.041Z,male_vraiment_flat_161.wav,0,False,2339,65,féminin,2,0.142086,-38.721105
consent,51,1,2024-03-03T14:34:19.041Z,male_vraiment_flat_161.wav,0,False,2339,65,féminin,3,0.213129,108.595174
consent,51,1,2024-03-03T14:34:19.041Z,male_vraiment_flat_161.wav,0,False,2339,65,féminin,4,0.284172,94.751032
consent,51,1,2024-03-03T14:34:19.041Z,male_vraiment_flat_161.wav,0,False,2339,65,féminin,5,0.355215,-22.399732
consent,51,1,2024-03-03T14:34:19.041Z,male_vraiment_flat_161.wav,0,False,2339,65,féminin,6,0.426259,88.139884
consent,51,1,2024-03-03T14:34:19.041Z,male_vraiment_flat_141.wav,1,True,2339,65,féminin,0,0.000000,137.275446
consent,51,1,2024-03-03T14:34:19.041Z,male_vraiment_flat_141.wav,1,True,2339,65,féminin,1,0.071043,43.805847
consent,51,1,2024-03-03T14:34:19.041Z,male_vraiment_flat_141.wav,1,True,2339,65,féminin,2,0.142086,-129.344909
consent,51,1,2024-03-03T14:34:19.041Z,male_vraiment_flat_141.wav,1,True,2339,65,féminin,3,0.213129,-123.799171
consent,51,1,2024-03-03T14:34:19.041Z,male_vraiment_flat_141.wav,1,True,2339,65,féminin,4,0.284172,-103.584410
consent,51,1,2024-03-03T14:34:19.041Z,male_vraiment_flat_141.wav,1,True,2339,65,féminin,5,0.355215,8.047141
consent,51,1,2024-03-03T14:34:19.041Z,male_vraiment_flat_141.wav,1,True,2339,65,féminin,6,0.426259,-108.188423
consent,52,1,2024-03-03T14:34:19.041Z,male_vraiment_flat_166.wav,0,False,885,65,féminin,0,0.000000,40.484109
consent,52,1,2024-03-03T14:34:19.041Z,male_vraiment_flat_166.wav,0,False,885,65,féminin,1,0.071043,-10.250913
consent,52,1,2024-03-03T14:34:19.041Z,male_vraiment_flat_166.wav,0,False,885,65,féminin,2,0.142086,-109.726305
consent,52,1,2024-03-03T14:34:19.041Z,male_vraiment_flat_166.wav,0,False,885,65,féminin,3,0.213129,-32.205058
consent,52,1,2024-03-03T14:34:19.041Z,male_vraiment_flat_166.wav,0,False,885,65,féminin,4,0.284172,141.461363
consent,52,1,2024-03-03T14:34:19.041Z,male_vraiment_flat_166.wav,0,False,885,65,féminin,5,0.355215,65.199031
consent,52,1,2024-03-03T14:34:19.041Z,male_vraiment_flat_166.wav,0,False,885,65,féminin,6,0.426259,-54.014549
consent,52,1,2024-03-03T14:34:19.041Z,male_vraiment_flat_125.wav,1,True,885,65,féminin,0,0.000000,-40.862052
consent,52,1,2024-03-03T14:34:19.041Z,male_vraiment_flat_125.wav,1,True,885,65,féminin,1,0.071043,93.193290
consent,52,1,2024-03-03T14:34:19.041Z,male_vraiment_flat_125.wav,1,True,885,65,féminin,2,0.142086,71.046063
consent,52,1,2024-03-03T14:34:19.041Z,male_vraiment_flat_125.wav,1,True,885,65,féminin,3,0.213129,-144.093496
consent,52,1,2024-03-03T14:34:19.041Z,male_vraiment_flat_125.wav,1,True,885,65,féminin,4,0.284172,-1.218193
consent,52,1,2024-03-03T14:34:19.041Z,male_vraiment_flat_125.wav,1,True,885,65,féminin,5,0.355215,94.223966
consent,52,1,2024-03-03T14:34:19.041Z,male_vraiment_flat_125.wav,1,True,885,65,féminin,6,0.426259,-56.349938
consent,53,1,2024-03-03T14:34:19.041Z,male_vraiment_flat_129.wav,0,False,803,65,féminin,0,0.000000,121.236122
consent,53,1,2024-03-03T14:34:19.041Z,male_vraiment_flat_129.wav,0,False,803,65,féminin,1,0.071043,8.396736
consent,53,1,2024-03-03T14:34:19.041Z,male_vraiment_flat_129.wav,0,False,803,65,féminin,2,0.142086,-17.691364
consent,53,1,2024-03-03T14:34:19.041Z,male_vraiment_flat_129.wav,0,False,803,65,féminin,3,0.213129,73.711335
consent,53,1,2024-03-03T14:34:19.041Z,male_vraiment_flat_129.wav,0,False,803,65,féminin,4,0.284172,-117.430618
consent,53,1,2024-03-03T14:34:19.041Z,male_vraiment_flat_129.wav,0,False,803,65,féminin,5,0.355215,-12.936057
consent,53,1,2024-03-03T14:34:19.041Z,male_vraiment_flat_129.wav,0,False,803,65,féminin,6,0.426259,-63.494285
consent,53,1,2024-03-03T14:34:19.041Z,male_vraiment_flat_158.wav,1,True,803,65,féminin,0,0.000000,140.907348
consent,53,1,2024-03-03T14:34:19.041Z,male_vraiment_flat_158.wav,1,True,803,65,féminin,1,0.071043,56.647301
consent,53,1,2024-03-03T14:34:19.041Z,male_vraiment_flat_158.wav,1,True,803,65,féminin,2,0.142086,-121.852756
consent,53,1,2024-03-03T14:34:19.041Z,male_vraiment_flat_158.wav,1,True,803,65,féminin,3,0.213129,24.887877
consent,53,1,2024-03-03T14:34:19.041Z,male_vraiment_flat_158.wav,1,True,803,65,féminin,4,0.284172,-16.147612
consent,53,1,2024-03-03T14:34:19.041Z,male_vraiment_flat_158.wav,1,True,803,65,féminin,5,0.355215,22.171837
consent,53,1,2024-03-03T14:34:19.041Z,male_vraiment_flat_158.wav,1,True,803,65,féminin,6,0.426259,-49.022546
consent,54,1,2024-03-03T14:34:19.041Z,male_vraiment_flat_101.wav,0,False,1091,65,féminin,0,0.000000,69.316576
consent,54,1,2024-03-03T14:34:19.041Z,male_vraiment_flat_101.wav,0,False,1091,65,féminin,1,0.071043,-9.395360
consent,54,1,2024-03-03T14:34:19.041Z,male_vraiment_flat_101.wav,0,False,1091,65,féminin,2,0.142086,-16.210020
consent,54,1,2024-03-03T14:34:19.041Z,male_vraiment_flat_101.wav,0,False,1091,65,féminin,3,0.213129,5.282415
consent,54,1,2024-03-03T14:34:19.041Z,male_vraiment_flat_101.wav,0,False,1091,65,féminin,4,0.284172,-92.031474
consent,54,1,2024-03-03T14:34:19.041Z,male_vraiment_flat_101.wav,0,False,1091,65,féminin,5,0.355215,-71.382142
consent,54,1,2024-03-03T14:34:19.041Z,male_vraiment_flat_101.wav,0,False,1091,65,féminin,6,0.426259,-144.168558
consent,54,1,2024-03-03T14:34:19.041Z,male_vraiment_flat_91.wav,1,True,1091,65,féminin,0,0.000000,58.982225
consent,54,1,2024-03-03T14:34:19.041Z,male_vraiment_flat_91.wav,1,True,1091,65,féminin,1,0.071043,126.482844
consent,54,1,2024-03-03T14:34:19.041Z,male_vraiment_flat_91.wav,1,True,1091,65,féminin,2,0.142086,-120.324305
consent,54,1,2024-03-03T14:34:19.041Z,male_vraiment_flat_91.wav,1,True,1091,65,féminin,3,0.213129,54.493295
consent,54,1,2024-03-03T14:34:19.041Z,male_vraiment_flat_91.wav,1,True,1091,65,féminin,4,0.284172,74.680181
consent,54,1,2024-03-03T14:34:19.041Z,male_vraiment_flat_91.wav,1,True,1091,65,féminin,5,0.355215,99.124880
consent,54,1,2024-03-03T14:34:19.041Z,male_vraiment_flat_91.wav,1,True,1091,65,féminin,6,0.426259,-32.505202
consent,55,1,2024-03-03T14:34:19.041Z,male_vraiment_flat_72.wav,0,False,417,65,féminin,0,0.000000,-108.464526
consent,55,1,2024-03-03T14:34:19.041Z,male_vraiment_flat_72.wav,0,False,417,65,féminin,1,0.071043,78.835335
consent,55,1,2024-03-03T14:34:19.041Z,male_vraiment_flat_72.wav,0,False,417,65,féminin,2,0.142086,134.553834
consent,55,1,2024-03-03T14:34:19.041Z,male_vraiment_flat_72.wav,0,False,417,65,féminin,3,0.213129,5.396534
consent,55,1,2024-03-03T14:34:19.041Z,male_vraiment_flat_72.wav,0,False,417,65,féminin,4,0.284172,7.798595
consent,55,1,2024-03-03T14:34:19.041Z,male_vraiment_flat_72.wav,0,False,417,65,féminin,5,0.355215,65.510626
consent,55,1,2024-03-03T14:34:19.041Z,male_vraiment_flat_72.wav,0,False,417,65,féminin,6,0.426259,-103.798030
consent,55,1,2024-03-03T14:34:19.041Z,male_vraiment_flat_124.wav,1,True,417,65,féminin,0,0.000000,-7.963711
consent,55,1,2024-03-03T14:34:19.041Z,male_vraiment_flat_124.wav,1,True,417,65,féminin,1,0.071043,-56.081883
consent,55,1,2024-03-03T14:34:19.041Z,male_vraiment_flat_124.wav,1,True,417,65,féminin,2,0.142086,-78.115299
consent,55,1,2024-03-03T14:34:19.041Z,male_vraiment_flat_124.wav,1,True,417,65,féminin,3,0.213129,-24.811935
consent,55,1,2024-03-03T14:34:19.041Z,male_vraiment_flat_124.wav,1,True,417,65,féminin,4,0.284172,-9.003272
consent,55,1,2024-03-03T14:34:19.041Z,male_vraiment_flat_124.wav,1,True,417,65,féminin,5,0.355215,13.712214
consent,55,1,2024-03-03T14:34:19.041Z,male_vraiment_flat_124.wav,1,True,417,65,féminin,6,0.426259,140.048390
consent,56,1,2024-03-03T14:34:19.041Z,male_vraiment_flat_118.wav,0,True,1733,65,féminin,0,0.000000,126.187147
consent,56,1,2024-03-03T14:34:19.041Z,male_vraiment_flat_118.wav,0,True,1733,65,féminin,1,0.071043,44.969184
consent,56,1,2024-03-03T14:34:19.041Z,male_vraiment_flat_118.wav,0,True,1733,65,féminin,2,0.142086,-108.017243
consent,56,1,2024-03-03T14:34:19.041Z,male_vraiment_flat_118.wav,0,True,1733,65,féminin,3,0.213129,6.480803
consent,56,1,2024-03-03T14:34:19.041Z,male_vraiment_flat_118.wav,0,True,1733,65,féminin,4,0.284172,89.811831
consent,56,1,2024-03-03T14:34:19.041Z,male_vraiment_flat_118.wav,0,True,1733,65,féminin,5,0.355215,60.034007
consent,56,1,2024-03-03T14:34:19.041Z,male_vraiment_flat_118.wav,0,True,1733,65,féminin,6,0.426259,63.317816
consent,56,1,2024-03-03T14:34:19.041Z,male_vraiment_flat_179.wav,1,False,1733,65,féminin,0,0.000000,31.793897
consent,56,1,2024-03-03T14:34:19.041Z,male_vraiment_flat_179.wav,1,False,1733,65,féminin,1,0.071043,-7.766660
consent,56,1,2024-03-03T14:34:19.041Z,male_vraiment_flat_179.wav,1,False,1733,65,féminin,2,0.142086,14.202215
consent,56,1,2024-03-03T14:34:19.041Z,male_vraiment_flat_179.wav,1,False,1733,65,féminin,3,0.213129,-28.726082
consent,56,1,2024-03-03T14:34:19.041Z,male_vraiment_flat_179.wav,1,False,1733,65,féminin,4,0.284172,-38.298342
consent,56,1,2024-03-03T14:34:19.041Z,male_vraiment_flat_179.wav,1,False,1733,65,féminin,5,0.355215,97.025797
consent,56,1,2024-03-03T14:34:19.041Z,male_vraiment_flat_179.wav,1,False,1733,65,féminin,6,0.426259,-148.112175
consent,57,1,2024-03-03T14:34:19.041Z,male_vraiment_flat_135.wav,0,True,382,65,féminin,0,0.000000,69.664553
consent,57,1,2024-03-03T14:34:19.041Z,male_vraiment_flat_135.wav,0,True,382,65,féminin,1,0.071043,-40.692966
consent,57,1,2024-03-03T14:34:19.041Z,male_vraiment_flat_135.wav,0,True,382,65,féminin,2,0.142086,-94.283336
consent,57,1,2024-03-03T14:34:19.041Z,male_vraiment_flat_135.wav,0,True,382,65,féminin,3,0.213129,7.777910
consent,57,1,2024-03-03T14:34:19.041Z,male_vraiment_flat_135.wav,0,True,382,65,féminin,4,0.284172,26.713191
consent,57,1,2024-03-03T14:34:19.041Z,male_vraiment_flat_135.wav,0,True,382,65,féminin,5,0.355215,137.292776
consent,57,1,2024-03-03T14:34:19.041Z,male_vraiment_flat_135.wav,0,True,382,65,féminin,6,0.426259,-136.153804
consent,57,1,2024-03-03T14:34:19.041Z,male_vraiment_flat_136.wav,1,False,382,65,féminin,0,0.000000,-47.296851
consent,57,1,2024-03-03T14:34:19.041Z,male_vraiment_flat_136.wav,1,False,382,65,féminin,1,0.071043,-58.430070
consent,57,1,2024-03-03T14:34:19.041Z,male_vraiment_flat_136.wav,1,False,382,65,féminin,2,0.142086,-0.935981
consent,57,1,2024-03-03T14:34:19.041Z,male_vraiment_flat_136.wav,1,False,382,65,féminin,3,0.213129,-128.690729
consent,57,1,2024-03-03T14:34:19.041Z,male_vraiment_flat_136.wav,1,False,382,65,féminin,4,0.284172,49.658863
consent,57,1,2024-03-03T14:34:19.041Z,male_vraiment_flat_136.wav,1,False,382,65,féminin,5,0.355215,66.569477
consent,57,1,2024-03-03T14:34:19.041Z,male_vraiment_flat_136.wav,1,False,382,65,féminin,6,0.426259,92.598952
consent,58,1,2024-03-03T14:34:19.041Z,male_vraiment_flat_44.wav,0,False,1081,65,féminin,0,0.000000,-41.207511
consent,58,1,2024-03-03T14:34:19.041Z,male_vraiment_flat_44.wav,0,False,1081,65,féminin,1,0.071043,-36.343841
consent,58,1,2024-03-03T14:34:19.041Z,male_vraiment_flat_44.wav,0,False,1081,65,féminin,2,0.142086,111.477084
consent,58,1,2024-03-03T14:34:19.041Z,male_vraiment_flat_44.wav,0,False,1081,65,féminin,3,0.213129,5.942406
consent,58,1,2024-03-03T14:34:19.041Z,male_vraiment_flat_44.wav,0,False,1081,65,féminin,4,0.284172,108.539673
consent,58,1,2024-03-03T14:34:19.041Z,male_vraiment_flat_44.wav,0,False,1081,65,féminin,5,0.355215,-120.732661
consent,58,1,2024-03-03T14:34:19.041Z,male_vraiment_flat_44.wav,0,False,1081,65,féminin,6,0.426259,-22.824839
consent,58,1,2024-03-03T14:34:19.041Z,male_vraiment_flat_183.wav,1,True,1081,65,féminin,0,0.000000,102.527130
consent,58,1,2024-03-03T14:34:19.041Z,male_vraiment_flat_183.wav,1,True,1081,65,féminin,1,0.071043,114.037020
consent,58,1,2024-03-03T14:34:19.041Z,male_vraiment_flat_183.wav,1,True,1081,65,féminin,2,0.142086,-45.723055
consent,58,1,2024-03-03T14:34:19.041Z,male_vraiment_flat_183.wav,1,True,1081,65,féminin,3,0.213129,-109.210749
consent,58,1,2024-03-03T14:34:19.041Z,male_vraiment_flat_183.wav,1,True,1081,65,féminin,4,0.284172,-29.266312
consent,58,1,2024-03-03T14:34:19.041Z,male_vraiment_flat_183.wav,1,True,1081,65,féminin,5,0.355215,-77.798514
consent,58,1,2024-03-03T14:34:19.041Z,male_vraiment_flat_183.wav,1,True,1081,65,féminin,6,0.426259,-133.179439
consent,59,1,2024-03-03T14:34:19.041Z,male_vraiment_flat_140.wav,0,True,2780,65,féminin,0,0.000000,-149.304179
consent,59,1,2024-03-03T14:34:19.041Z,male_vraiment_flat_140.wav,0,True,2780,65,féminin,1,0.071043,148.600586
consent,59,1,2024-03-03T14:34:19.041Z,male_vraiment_flat_140.wav,0,True,2780,65,féminin,2,0.142086,-115.715849
consent,59,1,2024-03-03T14:34:19.041Z,male_vraiment_flat_140.wav,0,True,2780,65,féminin,3,0.213129,139.265939
consent,59,1,2024-03-03T14:34:19.041Z,male_vraiment_flat_140.wav,0,True,2780,65,féminin,4,0.284172,45.121427
consent,59,1,2024-03-03T14:34:19.041Z,male_vraiment_flat_140.wav,0,True,2780,65,féminin,5,0.355215,-93.318951
consent,59,1,2024-03-03T14:34:19.041Z,male_vraiment_flat_140.wav,0,True,2780,65,féminin,6,0.426259,-66.215565
consent,59,1,2024-03-03T14:34:19.041Z,male_vraiment_flat_143.wav,1,False,2780,65,féminin,0,0.000000,-11.669164
consent,59,1,2024-03-03T14:34:19.041Z,male_vraiment_flat_143.wav,1,False,2780,65,féminin,1,0.071043,-18.385217
consent,59,1,2024-03-03T14:34:19.041Z,male_vraiment_flat_143.wav,1,False,2780,65,féminin,2,0.142086,88.645793
consent,59,1,2024-03-03T14:34:19.041Z,male_vraiment_flat_143.wav,1,False,2780,65,féminin,3,0.213129,-2.720338
consent,59,1,2024-03-03T14:34:19.041Z,male_vraiment_flat_143.wav,1,False,2780,65,féminin,4,0.284172,-37.224869
consent,59,1,2024-03-03T14:34:19.041Z,male_vraiment_flat_143.wav,1,False,2780,65,féminin,5,0.355215,-143.685714
consent,59,1,2024-03-03T14:34:19.041Z,male_vraiment_flat_143.wav,1,False,2780,65,féminin,6,0.426259,-125.491494
consent,60,1,2024-03-03T14:34:19.041Z,male_vraiment_flat_193.wav,0,True,963,65,féminin,0,0.000000,-104.498046
consent,60,1,2024-03-03T14:34:19.041Z,male_vraiment_flat_193.wav,0,True,963,65,féminin,1,0.071043,27.454942
consent,60,1,2024-03-03T14:34:19.041Z,male_vraiment_flat_193.wav,0,True,963,65,féminin,2,0.142086,-81.084240
consent,60,1,2024-03-03T14:34:19.041Z,male_vraiment_flat_193.wav,0,True,963,65,féminin,3,0.213129,-66.105426
consent,60,1,2024-03-03T14:34:19.041Z,male_vraiment_flat_193.wav,0,True,963,65,féminin,4,0.284172,-18.843418
consent,60,1,2024-03-03T14:34:19.041Z,male_vraiment_flat_193.wav,0,True,963,65,féminin,5,0.355215,59.447118
consent,60,1,2024-03-03T14:34:19.041Z,male_vraiment_flat_193.wav,0,True,963,65,féminin,6,0.426259,86.357299
consent,60,1,2024-03-03T14:34:19.041Z,male_vraiment_flat_127.wav,1,False,963,65,féminin,0,0.000000,143.598511
consent,60,1,2024-03-03T14:34:19.041Z,male_vraiment_flat_127.wav,1,False,963,65,féminin,1,0.071043,23.645136
consent,60,1,2024-03-03T14:34:19.041Z,male_vraiment_flat_127.wav,1,False,963,65,féminin,2,0.142086,-118.740497
consent,60,1,2024-03-03T14:34:19.041Z,male_vraiment_flat_127.wav,1,False,963,65,féminin,3,0.213129,-109.046436
consent,60,1,2024-03-03T14:34:19.041Z,male_vraiment_flat_127.wav,1,False,963,65,féminin,4,0.284172,66.022521
consent,60,1,2024-03-03T14:34:19.041Z,male_vraiment_flat_127.wav,1,False,963,65,féminin,5,0.355215,-13.059175
consent,60,1,2024-03-03T14:34:19.041Z,male_vraiment_flat_127.wav,1,False,963,65,féminin,6,0.426259,22.700660
consent,61,1,2024-03-03T14:34:19.041Z,male_vraiment_flat_85.wav,0,True,893,65,féminin,0,0.000000,16.220058
consent,61,1,2024-03-03T14:34:19.041Z,male_vraiment_flat_85.wav,0,True,893,65,féminin,1,0.071043,97.172848
consent,61,1,2024-03-03T14:34:19.041Z,male_vraiment_flat_85.wav,0,True,893,65,féminin,2,0.142086,121.919735
consent,61,1,2024-03-03T14:34:19.041Z,male_vraiment_flat_85.wav,0,True,893,65,féminin,3,0.213129,69.049273
consent,61,1,2024-03-03T14:34:19.041Z,male_vraiment_flat_85.wav,0,True,893,65,féminin,4,0.284172,124.256579
consent,61,1,2024-03-03T14:34:19.041Z,male_vraiment_flat_85.wav,0,True,893,65,féminin,5,0.355215,30.981006
consent,61,1,2024-03-03T14:34:19.041Z,male_vraiment_flat_85.wav,0,True,893,65,féminin,6,0.426259,-67.410158
consent,61,1,2024-03-03T14:34:19.041Z,male_vraiment_flat_5.wav,1,False,893,65,féminin,0,0.000000,88.556797
consent,61,1,2024-03-03T14:34:19.041Z,male_vraiment_flat_5.wav,1,False,893,65,féminin,1,0.071043,120.959384
consent,61,1,2024-03-03T14:34:19.041Z,male_vraiment_flat_5.wav,1,False,893,65,féminin,2,0.142086,-116.065822
consent,61,1,2024-03-03T14:34:19.041Z,male_vraiment_flat_5.wav,1,False,893,65,féminin,3,0.213129,130.464712
consent,61,1,2024-03-03T14:34:19.041Z,male_vraiment_flat_5.wav,1,False,893,65,féminin,4,0.284172,88.167919
consent,61,1,2024-03-03T14:34:19.041Z,male_vraiment_flat_5.wav,1,False,893,65,féminin,5,0.355215,75.417329
consent,61,1,2024-03-03T14:34:19.041Z,male_vraiment_flat_5.wav,1,False,893,65,féminin,6,0.426259,65.499211
consent,62,1,2024-03-03T14:34:19.041Z,male_vraiment_flat_154.wav,0,True,1066,65,féminin,0,0.000000,-56.341735
consent,62,1,2024-03-03T14:34:19.041Z,male_vraiment_flat_154.wav,0,True,1066,65,féminin,1,0.071043,15.133004
consent,62,1,2024-03-03T14:34:19.041Z,male_vraiment_flat_154.wav,0,True,1066,65,féminin,2,0.142086,67.588138
consent,62,1,2024-03-03T14:34:19.041Z,male_vraiment_flat_154.wav,0,True,1066,65,féminin,3,0.213129,4.827765
consent,62,1,2024-03-03T14:34:19.041Z,male_vraiment_flat_154.wav,0,True,1066,65,féminin,4,0.284172,-119.124529
consent,62,1,2024-03-03T14:34:19.041Z,male_vraiment_flat_154.wav,0,True,1066,65,féminin,5,0.355215,137.124750
consent,62,1,2024-03-03T14:34:19.041Z,male_vraiment_flat_154.wav,0,True,1066,65,féminin,6,0.426259,-61.627299
consent,62,1,2024-03-03T14:34:19.041Z,male_vraiment_flat_177.wav,1,False,1066,65,féminin,0,0.000000,16.306046
consent,62,1,2024-03-03T14:34:19.041Z,male_vraiment_flat_177.wav,1,False,1066,65,féminin,1,0.071043,49.193464
consent,62,1,2024-03-03T14:34:19.041Z,male_vraiment_flat_177.wav,1,False,1066,65,féminin,2,0.142086,-57.450827
consent,62,1,2024-03-03T14:34:19.041Z,male_vraiment_flat_177.wav,1,False,1066,65,féminin,3,0.213129,-71.200742
consent,62,1,2024-03-03T14:34:19.041Z,male_vraiment_flat_177.wav,1,False,1066,65,féminin,4,0.284172,75.759547
consent,62,1,2024-03-03T14:34:19.041Z,male_vraiment_flat_177.wav,1,False,1066,65,féminin,5,0.355215,-147.097868
consent,62,1,2024-03-03T14:34:19.041Z,male_vraiment_flat_177.wav,1,False,1066,65,féminin,6,0.426259,-23.614561
consent,63,1,2024-03-03T14:34:19.041Z,male_vraiment_flat_189.wav,0,True,1009,65,féminin,0,0.000000,53.448621
consent,63,1,2024-03-03T14:34:19.041Z,male_vraiment_flat_189.wav,0,True,1009,65,féminin,1,0.071043,82.292801
consent,63,1,2024-03-03T14:34:19.041Z,male_vraiment_flat_189.wav,0,True,1009,65,féminin,2,0.142086,-89.509706
consent,63,1,2024-03-03T14:34:19.041Z,male_vraiment_flat_189.wav,0,True,1009,65,féminin,3,0.213129,61.203077
consent,63,1,2024-03-03T14:34:19.041Z,male_vraiment_flat_189.wav,0,True,1009,65,féminin,4,0.284172,-64.080431
consent,63,1,2024-03-03T14:34:19.041Z,male_vraiment_flat_189.wav,0,True,1009,65,féminin,5,0.355215,71.408242
consent,63,1,2024-03-03T14:34:19.041Z,male_vraiment_flat_189.wav,0,True,1009,65,féminin,6,0.426259,-96.299976
consent,63,1,2024-03-03T14:34:19.041Z,male_vraiment_flat_130.wav,1,False,1009,65,féminin,0,0.000000,-146.057737
consent,63,1,2024-03-03T14:34:19.041Z,male_vraiment_flat_130.wav,1,False,1009,65,féminin,1,0.071043,-49.781911
consent,63,1,2024-03-03T14:34:19.041Z,male_vraiment_flat_130.wav,1,False,1009,65,féminin,2,0.142086,74.893740
consent,63,1,2024-03-03T14:34:19.041Z,male_vraiment_flat_130.wav,1,False,1009,65,féminin,3,0.213129,-14.505163
consent,63,1,2024-03-03T14:34:19.041Z,male_vraiment_flat_130.wav,1,False,1009,65,féminin,4,0.284172,16.979815
consent,63,1,2024-03-03T14:34:19.041Z,male_vraiment_flat_130.wav,1,False,1009,65,féminin,5,0.355215,-66.512052
consent,63,1,2024-03-03T14:34:19.041Z,male_vraiment_flat_130.wav,1,False,1009,65,féminin,6,0.426259,-59.569067
consent,64,1,2024-03-03T14:34:19.041Z,male_vraiment_flat_19.wav,0,False,1620,65,féminin,0,0.000000,-23.596543
consent,64,1,2024-03-03T14:34:19.041Z,male_vraiment_flat_19.wav,0,False,1620,65,féminin,1,0.071043,-71.824414
consent,64,1,2024-03-03T14:34:19.041Z,male_vraiment_flat_19.wav,0,False,1620,65,féminin,2,0.142086,88.506579
consent,64,1,2024-03-03T14:34:19.041Z,male_vraiment_flat_19.wav,0,False,1620,65,féminin,3,0.213129,-79.935804
consent,64,1,2024-03-03T14:34:19.041Z,male_vraiment_flat_19.wav,0,False,1620,65,féminin,4,0.284172,97.974212
consent,64,1,2024-03-03T14:34:19.041Z,male_vraiment_flat_19.wav,0,False,1620,65,féminin,5,0.355215,-89.439384
consent,64,1,2024-03-03T14:34:19.041Z,male_vraiment_flat_19.wav,0,False,1620,65,féminin,6,0.426259,-131.198163
consent,64,1,2024-03-03T14:34:19.041Z,male_vraiment_flat_93.wav,1,True,1620,65,féminin,0,0.000000,89.760217
consent,64,1,2024-03-03T14:34:19.041Z,male_vraiment_flat_93.wav,1,True,1620,65,féminin,1,0.071043,18.591855
consent,64,1,2024-03-03T14:34:19.041Z,male_vraiment_flat_93.wav,1,True,1620,65,féminin,2,0.142086,63.582537
consent,64,1,2024-03-03T14:34:19.041Z,male_vraiment_flat_93.wav,1,True,1620,65,féminin,3,0.213129,147.491611
consent,64,1,2024-03-03T14:34:19.041Z,male_vraiment_flat_93.wav,1,True,1620,65,féminin,4,0.284172,-113.128196
consent,64,1,2024-03-03T14:34:19.041Z,male_vraiment_flat_93.wav,1,True,1620,65,féminin,5,0.355215,12.197118
consent,64,1,2024-03-03T14:34:19.041Z,male_vraiment_flat_93.wav,1,True,1620,65,féminin,6,0.426259,-36.730637
consent,65,1,2024-03-03T14:34:19.041Z,male_vraiment_flat_16.wav,0,False,1221,65,féminin,0,0.000000,141.243943
consent,65,1,2024-03-03T14:34:19.041Z,male_vraiment_flat_16.wav,0,False,1221,65,féminin,1,0.071043,-34.322435
consent,65,1,2024-03-03T14:34:19.041Z,male_vraiment_flat_16.wav,0,False,1221,65,féminin,2,0.142086,10.018864
consent,65,1,2024-03-03T14:34:19.041Z,male_vraiment_flat_16.wav,0,False,1221,65,féminin,3,0.213129,-24.066951
