subj,trial,block,date,stim,stim_order,response,rt,age,sex,param_index,segment_time,pitch
21101959,0,0,2024-02-26T13:31:54.886Z,male_vraiment_flat_78.wav,0,True,4254,64,F,0,0.000000,80.055785
21101959,0,0,2024-02-26T13:31:54.886Z,male_vraiment_flat_78.wav,0,True,4254,64,F,1,0.071043,117.831593
21101959,0,0,2024-02-26T13:31:54.886Z,male_vraiment_flat_78.wav,0,True,4254,64,F,2,0.142086,-32.666549
21101959,0,0,2024-02-26T13:31:54.886Z,male_vraiment_flat_78.wav,0,True,4254,64,F,3,0.213129,67.905321
21101959,0,0,2024-02-26T13:31:54.886Z,male_vraiment_flat_78.wav,0,True,4254,64,F,4,0.284172,84.716683
21101959,0,0,2024-02-26T13:31:54.886Z,male_vraiment_flat_78.wav,0,True,4254,64,F,5,0.355215,30.832945
21101959,0,0,2024-02-26T13:31:54.886Z,male_vraiment_flat_78.wav,0,True,4254,64,F,6,0.426259,87.837740
21101959,0,0,2024-02-26T13:31:54.886Z,male_vraiment_flat_58.wav,1,False,4254,64,F,0,0.000000,-52.909251
21101959,0,0,2024-02-26T13:31:54.886Z,male_vraiment_flat_58.wav,1,False,4254,64,F,1,0.071043,-4.560860
21101959,0,0,2024-02-26T13:31:54.886Z,male_vraiment_flat_58.wav,1,False,4254,64,F,2,0.142086,-106.285240
21101959,0,0,2024-02-26T13:31:54.886Z,male_vraiment_flat_58.wav,1,False,4254,64,F,3,0.213129,-64.474310
21101959,0,0,2024-02-26T13:31:54.886Z,male_vraiment_flat_58.wav,1,False,4254,64,F,4,0.284172,-121.964639
21101959,0,0,2024-02-26T13:31:54.886Z,male_vraiment_flat_58.wav,1,False,4254,64,F,5,0.355215,35.204504
21101959,0,0,2024-02-26T13:31:54.886Z,male_vraiment_flat_58.wav,1,False,4254,64,F,6,0.426259,-7.933790
21101959,1,0,2024-02-26T13:31:54.886Z,male_vraiment_flat_76.wav,0,True,7386,64,F,0,0.000000,-119.681125
21101959,1,0,2024-02-26T13:31:54.886Z,male_vraiment_flat_76.wav,0,True,7386,64,F,1,0.071043,66.441865
21101959,1,0,2024-02-26T13:31:54.886Z,male_vraiment_flat_76.wav,0,True,7386,64,F,2,0.142086,-95.265303
21101959,1,0,2024-02-26T13:31:54.886Z,male_vraiment_flat_76.wav,0,True,7386,64,F,3,0.213129,7.780656
21101959,1,0,2024-02-26T13:31:54.886Z,male_vraiment_flat_76.wav,0,True,7386,64,F,4,0.284172,-90.368576
21101959,1,0,2024-02-26T13:31:54.886Z,male_vraiment_flat_76.wav,0,True,7386,64,F,5,0.355215,-64.528472
21101959,1,0,2024-02-26T13:31:54.886Z,male_vraiment_flat_76.wav,0,True,7386,64,F,6,0.426259,-137.293439
21101959,1,0,2024-02-26T13:31:54.886Z,male_vraiment_flat_143.wav,1,False,7386,64,F,0,0.000000,-11.669164
21101959,1,0,2024-02-26T13:31:54.886Z,male_vraiment_flat_143.wav,1,False,7386,64,F,1,0.071043,-18.385217
21101959,1,0,2024-02-26T13:31:54.886Z,male_vraiment_flat_143.wav,1,False,7386,64,F,2,0.142086,88.645793
21101959,1,0,2024-02-26T13:31:54.886Z,male_vraiment_flat_143.wav,1,False,7386,64,F,3,0.213129,-2.720338
21101959,1,0,2024-02-26T13:31:54.886Z,male_vraiment_flat_143.wav,1,False,7386,64,F,4,0.284172,-37.224869
21101959,1,0,2024-02-26T13:31:54.886Z,male_vraiment_flat_143.wav,1,False,7386,64,F,5,0.355215,-143.685714
21101959,1,0,2024-02-26T13:31:54.886Z,male_vraiment_flat_143.wav,1,False,7386,64,F,6,0.426259,-125.491494
21101959,2,0,2024-02-26T13:31:54.886Z,male_vraiment_flat_158.wav,0,False,3150,64,F,0,0.000000,140.907348
21101959,2,0,2024-02-26T13:31:54.886Z,male_vraiment_flat_158.wav,0,False,3150,64,F,1,0.071043,56.647301
21101959,2,0,2024-02-26T13:31:54.886Z,male_vraiment_flat_158.wav,0,False,3150,64,F,2,0.142086,-121.852756
21101959,2,0,2024-02-26T13:31:54.886Z,male_vraiment_flat_158.wav,0,False,3150,64,F,3,0.213129,24.887877
21101959,2,0,2024-02-26T13:31:54.886Z,male_vraiment_flat_158.wav,0,False,3150,64,F,4,0.284172,-16.147612
21101959,2,0,2024-02-26T13:31:54.886Z,male_vraiment_flat_158.wav,0,False,3150,64,F,5,0.355215,22.171837
21101959,2,0,2024-02-26T13:31:54.886Z,male_vraiment_flat_158.wav,0,False,3150,64,F,6,0.426259,-49.022546
21101959,2,0,2024-02-26T13:31:54.886Z,male_vraiment_flat_8.wav,1,True,3150,64,F,0,0.000000,88.027847
21101959,2,0,2024-02-26T13:31:54.886Z,male_vraiment_flat_8.wav,1,True,3150,64,F,1,0.071043,-108.976227
21101959,2,0,2024-02-26T13:31:54.886Z,male_vraiment_flat_8.wav,1,True,3150,64,F,2,0.142086,36.591048
21101959,2,0,2024-02-26T13:31:54.886Z,male_vraiment_flat_8.wav,1,True,3150,64,F,3,0.213129,7.260113
21101959,2,0,2024-02-26T13:31:54.886Z,male_vraiment_flat_8.wav,1,True,3150,64,F,4,0.284172,-133.690195
21101959,2,0,2024-02-26T13:31:54.886Z,male_vraiment_flat_8.wav,1,True,3150,64,F,5,0.355215,9.464811
21101959,2,0,2024-02-26T13:31:54.886Z,male_vraiment_flat_8.wav,1,True,3150,64,F,6,0.426259,-67.780032
21101959,3,0,2024-02-26T13:31:54.886Z,male_vraiment_flat_77.wav,0,True,3450,64,F,0,0.000000,-123.489900
21101959,3,0,2024-02-26T13:31:54.886Z,male_vraiment_flat_77.wav,0,True,3450,64,F,1,0.071043,8.804262
21101959,3,0,2024-02-26T13:31:54.886Z,male_vraiment_flat_77.wav,0,True,3450,64,F,2,0.142086,-15.205517
21101959,3,0,2024-02-26T13:31:54.886Z,male_vraiment_flat_77.wav,0,True,3450,64,F,3,0.213129,7.550940
21101959,3,0,2024-02-26T13:31:54.886Z,male_vraiment_flat_77.wav,0,True,3450,64,F,4,0.284172,97.551926
21101959,3,0,2024-02-26T13:31:54.886Z,male_vraiment_flat_77.wav,0,True,3450,64,F,5,0.355215,56.352460
21101959,3,0,2024-02-26T13:31:54.886Z,male_vraiment_flat_77.wav,0,True,3450,64,F,6,0.426259,-146.779345
21101959,3,0,2024-02-26T13:31:54.886Z,male_vraiment_flat_17.wav,1,False,3450,64,F,0,0.000000,91.198655
21101959,3,0,2024-02-26T13:31:54.886Z,male_vraiment_flat_17.wav,1,False,3450,64,F,1,0.071043,44.952547
21101959,3,0,2024-02-26T13:31:54.886Z,male_vraiment_flat_17.wav,1,False,3450,64,F,2,0.142086,-82.852461
21101959,3,0,2024-02-26T13:31:54.886Z,male_vraiment_flat_17.wav,1,False,3450,64,F,3,0.213129,-89.451177
21101959,3,0,2024-02-26T13:31:54.886Z,male_vraiment_flat_17.wav,1,False,3450,64,F,4,0.284172,-149.534475
21101959,3,0,2024-02-26T13:31:54.886Z,male_vraiment_flat_17.wav,1,False,3450,64,F,5,0.355215,-107.621144
21101959,3,0,2024-02-26T13:31:54.886Z,male_vraiment_flat_17.wav,1,False,3450,64,F,6,0.426259,-93.535165
21101959,4,0,2024-02-26T13:31:54.886Z,male_vraiment_flat_21.wav,0,False,2291,64,F,0,0.000000,84.422922
21101959,4,0,2024-02-26T13:31:54.886Z,male_vraiment_flat_21.wav,0,False,2291,64,F,1,0.071043,34.734306
21101959,4,0,2024-02-26T13:31:54.886Z,male_vraiment_flat_21.wav,0,False,2291,64,F,2,0.142086,84.348012
21101959,4,0,2024-02-26T13:31:54.886Z,male_vraiment_flat_21.wav,0,False,2291,64,F,3,0.213129,-112.005491
21101959,4,0,2024-02-26T13:31:54.886Z,male_vraiment_flat_21.wav,0,False,2291,64,F,4,0.284172,147.407394
21101959,4,0,2024-02-26T13:31:54.886Z,male_vraiment_flat_21.wav,0,False,2291,64,F,5,0.355215,-6.622355
21101959,4,0,2024-02-26T13:31:54.886Z,male_vraiment_flat_21.wav,0,False,2291,64,F,6,0.426259,125.674103
21101959,4,0,2024-02-26T13:31:54.886Z,male_vraiment_flat_147.wav,1,True,2291,64,F,0,0.000000,-109.572708
21101959,4,0,2024-02-26T13:31:54.886Z,male_vraiment_flat_147.wav,1,True,2291,64,F,1,0.071043,-50.943910
21101959,4,0,2024-02-26T13:31:54.886Z,male_vraiment_flat_147.wav,1,True,2291,64,F,2,0.142086,145.950821
21101959,4,0,2024-02-26T13:31:54.886Z,male_vraiment_flat_147.wav,1,True,2291,64,F,3,0.213129,141.813801
21101959,4,0,2024-02-26T13:31:54.886Z,male_vraiment_flat_147.wav,1,True,2291,64,F,4,0.284172,53.597843
21101959,4,0,2024-02-26T13:31:54.886Z,male_vraiment_flat_147.wav,1,True,2291,64,F,5,0.355215,-21.310214
21101959,4,0,2024-02-26T13:31:54.886Z,male_vraiment_flat_147.wav,1,True,2291,64,F,6,0.426259,-94.477021
21101959,5,0,2024-02-26T13:31:54.886Z,male_vraiment_flat_179.wav,0,True,1287,64,F,0,0.000000,31.793897
21101959,5,0,2024-02-26T13:31:54.886Z,male_vraiment_flat_179.wav,0,True,1287,64,F,1,0.071043,-7.766660
21101959,5,0,2024-02-26T13:31:54.886Z,male_vraiment_flat_179.wav,0,True,1287,64,F,2,0.142086,14.202215
21101959,5,0,2024-02-26T13:31:54.886Z,male_vraiment_flat_179.wav,0,True,1287,64,F,3,0.213129,-28.726082
21101959,5,0,2024-02-26T13:31:54.886Z,male_vraiment_flat_179.wav,0,True,1287,64,F,4,0.284172,-38.298342
21101959,5,0,2024-02-26T13:31:54.886Z,male_vraiment_flat_179.wav,0,True,1287,64,F,5,0.355215,97.025797
21101959,5,0,2024-02-26T13:31:54.886Z,male_vraiment_flat_179.wav,0,True,1287,64,F,6,0.426259,-148.112175
21101959,5,0,2024-02-26T13:31:54.886Z,male_vraiment_flat_146.wav,1,False,1287,64,F,0,0.000000,92.610651
21101959,5,0,2024-02-26T13:31:54.886Z,male_vraiment_flat_146.wav,1,False,1287,64,F,1,0.071043,40.250954
21101959,5,0,2024-02-26T13:31:54.886Z,male_vraiment_flat_146.wav,1,False,1287,64,F,2,0.142086,99.988333
21101959,5,0,2024-02-26T13:31:54.886Z,male_vraiment_flat_146.wav,1,False,1287,64,F,3,0.213129,115.543405
21101959,5,0,2024-02-26T13:31:54.886Z,male_vraiment_flat_146.wav,1,False,1287,64,F,4,0.284172,-3.607960
21101959,5,0,2024-02-26T13:31:54.886Z,male_vraiment_flat_146.wav,1,False,1287,64,F,5,0.355215,-91.494225
21101959,5,0,2024-02-26T13:31:54.886Z,male_vraiment_flat_146.wav,1,False,1287,64,F,6,0.426259,-109.708123
21101959,6,0,2024-02-26T13:31:54.886Z,male_vraiment_flat_43.wav,0,True,2053,64,F,0,0.000000,49.290737
21101959,6,0,2024-02-26T13:31:54.886Z,male_vraiment_flat_43.wav,0,True,2053,64,F,1,0.071043,5.814602
21101959,6,0,2024-02-26T13:31:54.886Z,male_vraiment_flat_43.wav,0,True,2053,64,F,2,0.142086,-14.528706
21101959,6,0,2024-02-26T13:31:54.886Z,male_vraiment_flat_43.wav,0,True,2053,64,F,3,0.213129,53.076799
21101959,6,0,2024-02-26T13:31:54.886Z,male_vraiment_flat_43.wav,0,True,2053,64,F,4,0.284172,-30.290069
21101959,6,0,2024-02-26T13:31:54.886Z,male_vraiment_flat_43.wav,0,True,2053,64,F,5,0.355215,134.741064
21101959,6,0,2024-02-26T13:31:54.886Z,male_vraiment_flat_43.wav,0,True,2053,64,F,6,0.426259,54.746527
21101959,6,0,2024-02-26T13:31:54.886Z,male_vraiment_flat_190.wav,1,False,2053,64,F,0,0.000000,-135.472764
21101959,6,0,2024-02-26T13:31:54.886Z,male_vraiment_flat_190.wav,1,False,2053,64,F,1,0.071043,-16.311165
21101959,6,0,2024-02-26T13:31:54.886Z,male_vraiment_flat_190.wav,1,False,2053,64,F,2,0.142086,-108.166759
21101959,6,0,2024-02-26T13:31:54.886Z,male_vraiment_flat_190.wav,1,False,2053,64,F,3,0.213129,-73.778410
21101959,6,0,2024-02-26T13:31:54.886Z,male_vraiment_flat_190.wav,1,False,2053,64,F,4,0.284172,-109.839915
21101959,6,0,2024-02-26T13:31:54.886Z,male_vraiment_flat_190.wav,1,False,2053,64,F,5,0.355215,2.895785
21101959,6,0,2024-02-26T13:31:54.886Z,male_vraiment_flat_190.wav,1,False,2053,64,F,6,0.426259,14.515822
21101959,7,0,2024-02-26T13:31:54.886Z,male_vraiment_flat_181.wav,0,True,2070,64,F,0,0.000000,87.984579
21101959,7,0,2024-02-26T13:31:54.886Z,male_vraiment_flat_181.wav,0,True,2070,64,F,1,0.071043,-52.749156
21101959,7,0,2024-02-26T13:31:54.886Z,male_vraiment_flat_181.wav,0,True,2070,64,F,2,0.142086,-81.744540
21101959,7,0,2024-02-26T13:31:54.886Z,male_vraiment_flat_181.wav,0,True,2070,64,F,3,0.213129,-103.539742
21101959,7,0,2024-02-26T13:31:54.886Z,male_vraiment_flat_181.wav,0,True,2070,64,F,4,0.284172,51.143910
21101959,7,0,2024-02-26T13:31:54.886Z,male_vraiment_flat_181.wav,0,True,2070,64,F,5,0.355215,89.293467
21101959,7,0,2024-02-26T13:31:54.886Z,male_vraiment_flat_181.wav,0,True,2070,64,F,6,0.426259,-33.289981
21101959,7,0,2024-02-26T13:31:54.886Z,male_vraiment_flat_38.wav,1,False,2070,64,F,0,0.000000,144.136513
21101959,7,0,2024-02-26T13:31:54.886Z,male_vraiment_flat_38.wav,1,False,2070,64,F,1,0.071043,-64.103106
21101959,7,0,2024-02-26T13:31:54.886Z,male_vraiment_flat_38.wav,1,False,2070,64,F,2,0.142086,-98.673112
21101959,7,0,2024-02-26T13:31:54.886Z,male_vraiment_flat_38.wav,1,False,2070,64,F,3,0.213129,-23.920097
21101959,7,0,2024-02-26T13:31:54.886Z,male_vraiment_flat_38.wav,1,False,2070,64,F,4,0.284172,-49.884553
21101959,7,0,2024-02-26T13:31:54.886Z,male_vraiment_flat_38.wav,1,False,2070,64,F,5,0.355215,-104.927811
21101959,7,0,2024-02-26T13:31:54.886Z,male_vraiment_flat_38.wav,1,False,2070,64,F,6,0.426259,133.075001
21101959,8,0,2024-02-26T13:31:54.886Z,male_vraiment_flat_116.wav,0,False,2491,64,F,0,0.000000,-80.686828
21101959,8,0,2024-02-26T13:31:54.886Z,male_vraiment_flat_116.wav,0,False,2491,64,F,1,0.071043,-31.189533
21101959,8,0,2024-02-26T13:31:54.886Z,male_vraiment_flat_116.wav,0,False,2491,64,F,2,0.142086,-144.914474
21101959,8,0,2024-02-26T13:31:54.886Z,male_vraiment_flat_116.wav,0,False,2491,64,F,3,0.213129,-49.653212
21101959,8,0,2024-02-26T13:31:54.886Z,male_vraiment_flat_116.wav,0,False,2491,64,F,4,0.284172,-94.646547
21101959,8,0,2024-02-26T13:31:54.886Z,male_vraiment_flat_116.wav,0,False,2491,64,F,5,0.355215,-38.055332
21101959,8,0,2024-02-26T13:31:54.886Z,male_vraiment_flat_116.wav,0,False,2491,64,F,6,0.426259,-90.510946
21101959,8,0,2024-02-26T13:31:54.886Z,male_vraiment_flat_95.wav,1,True,2491,64,F,0,0.000000,144.813706
21101959,8,0,2024-02-26T13:31:54.886Z,male_vraiment_flat_95.wav,1,True,2491,64,F,1,0.071043,36.420023
21101959,8,0,2024-02-26T13:31:54.886Z,male_vraiment_flat_95.wav,1,True,2491,64,F,2,0.142086,-15.581887
21101959,8,0,2024-02-26T13:31:54.886Z,male_vraiment_flat_95.wav,1,True,2491,64,F,3,0.213129,-108.080315
21101959,8,0,2024-02-26T13:31:54.886Z,male_vraiment_flat_95.wav,1,True,2491,64,F,4,0.284172,44.827040
21101959,8,0,2024-02-26T13:31:54.886Z,male_vraiment_flat_95.wav,1,True,2491,64,F,5,0.355215,-140.857646
21101959,8,0,2024-02-26T13:31:54.886Z,male_vraiment_flat_95.wav,1,True,2491,64,F,6,0.426259,-19.601185
21101959,9,0,2024-02-26T13:31:54.886Z,male_vraiment_flat_26.wav,0,False,1957,64,F,0,0.000000,-135.344658
21101959,9,0,2024-02-26T13:31:54.886Z,male_vraiment_flat_26.wav,0,False,1957,64,F,1,0.071043,-76.172858
21101959,9,0,2024-02-26T13:31:54.886Z,male_vraiment_flat_26.wav,0,False,1957,64,F,2,0.142086,-130.999312
21101959,9,0,2024-02-26T13:31:54.886Z,male_vraiment_flat_26.wav,0,False,1957,64,F,3,0.213129,-146.306144
21101959,9,0,2024-02-26T13:31:54.886Z,male_vraiment_flat_26.wav,0,False,1957,64,F,4,0.284172,-78.266251
21101959,9,0,2024-02-26T13:31:54.886Z,male_vraiment_flat_26.wav,0,False,1957,64,F,5,0.355215,30.254136
21101959,9,0,2024-02-26T13:31:54.886Z,male_vraiment_flat_26.wav,0,False,1957,64,F,6,0.426259,-114.179281
21101959,9,0,2024-02-26T13:31:54.886Z,male_vraiment_flat_160.wav,1,True,1957,64,F,0,0.000000,21.342691
21101959,9,0,2024-02-26T13:31:54.886Z,male_vraiment_flat_160.wav,1,True,1957,64,F,1,0.071043,-76.780347
21101959,9,0,2024-02-26T13:31:54.886Z,male_vraiment_flat_160.wav,1,True,1957,64,F,2,0.142086,-127.843887
21101959,9,0,2024-02-26T13:31:54.886Z,male_vraiment_flat_160.wav,1,True,1957,64,F,3,0.213129,-126.126744
21101959,9,0,2024-02-26T13:31:54.886Z,male_vraiment_flat_160.wav,1,True,1957,64,F,4,0.284172,-33.722090
21101959,9,0,2024-02-26T13:31:54.886Z,male_vraiment_flat_160.wav,1,True,1957,64,F,5,0.355215,18.600024
21101959,9,0,2024-02-26T13:31:54.886Z,male_vraiment_flat_160.wav,1,True,1957,64,F,6,0.426259,-57.157597
21101959,10,0,2024-02-26T13:31:54.886Z,male_vraiment_flat_140.wav,0,False,971,64,F,0,0.000000,-149.304179
21101959,10,0,2024-02-26T13:31:54.886Z,male_vraiment_flat_140.wav,0,False,971,64,F,1,0.071043,148.600586
21101959,10,0,2024-02-26T13:31:54.886Z,male_vraiment_flat_140.wav,0,False,971,64,F,2,0.142086,-115.715849
21101959,10,0,2024-02-26T13:31:54.886Z,male_vraiment_flat_140.wav,0,False,971,64,F,3,0.213129,139.265939
21101959,10,0,2024-02-26T13:31:54.886Z,male_vraiment_flat_140.wav,0,False,971,64,F,4,0.284172,45.121427
21101959,10,0,2024-02-26T13:31:54.886Z,male_vraiment_flat_140.wav,0,False,971,64,F,5,0.355215,-93.318951
21101959,10,0,2024-02-26T13:31:54.886Z,male_vraiment_flat_140.wav,0,False,971,64,F,6,0.426259,-66.215565
21101959,10,0,2024-02-26T13:31:54.886Z,male_vraiment_flat_106.wav,1,True,971,64,F,0,0.000000,13.442505
21101959,10,0,2024-02-26T13:31:54.886Z,male_vraiment_flat_106.wav,1,True,971,64,F,1,0.071043,67.880832
21101959,10,0,2024-02-26T13:31:54.886Z,male_vraiment_flat_106.wav,1,True,971,64,F,2,0.142086,105.927648
21101959,10,0,2024-02-26T13:31:54.886Z,male_vraiment_flat_106.wav,1,True,971,64,F,3,0.213129,65.041696
21101959,10,0,2024-02-26T13:31:54.886Z,male_vraiment_flat_106.wav,1,True,971,64,F,4,0.284172,-59.466654
21101959,10,0,2024-02-26T13:31:54.886Z,male_vraiment_flat_106.wav,1,True,971,64,F,5,0.355215,55.710963
21101959,10,0,2024-02-26T13:31:54.886Z,male_vraiment_flat_106.wav,1,True,971,64,F,6,0.426259,127.964857
21101959,11,0,2024-02-26T13:31:54.886Z,male_vraiment_flat_172.wav,0,False,710,64,F,0,0.000000,-63.308139
21101959,11,0,2024-02-26T13:31:54.886Z,male_vraiment_flat_172.wav,0,False,710,64,F,1,0.071043,-111.693367
21101959,11,0,2024-02-26T13:31:54.886Z,male_vraiment_flat_172.wav,0,False,710,64,F,2,0.142086,-61.444624
21101959,11,0,2024-02-26T13:31:54.886Z,male_vraiment_flat_172.wav,0,False,710,64,F,3,0.213129,137.201589
21101959,11,0,2024-02-26T13:31:54.886Z,male_vraiment_flat_172.wav,0,False,710,64,F,4,0.284172,-132.973462
21101959,11,0,2024-02-26T13:31:54.886Z,male_vraiment_flat_172.wav,0,False,710,64,F,5,0.355215,-126.405577
21101959,11,0,2024-02-26T13:31:54.886Z,male_vraiment_flat_172.wav,0,False,710,64,F,6,0.426259,-119.840486
21101959,11,0,2024-02-26T13:31:54.886Z,male_vraiment_flat_141.wav,1,True,710,64,F,0,0.000000,137.275446
21101959,11,0,2024-02-26T13:31:54.886Z,male_vraiment_flat_141.wav,1,True,710,64,F,1,0.071043,43.805847
21101959,11,0,2024-02-26T13:31:54.886Z,male_vraiment_flat_141.wav,1,True,710,64,F,2,0.142086,-129.344909
21101959,11,0,2024-02-26T13:31:54.886Z,male_vraiment_flat_141.wav,1,True,710,64,F,3,0.213129,-123.799171
21101959,11,0,2024-02-26T13:31:54.886Z,male_vraiment_flat_141.wav,1,True,710,64,F,4,0.284172,-103.584410
21101959,11,0,2024-02-26T13:31:54.886Z,male_vraiment_flat_141.wav,1,True,710,64,F,5,0.355215,8.047141
21101959,11,0,2024-02-26T13:31:54.886Z,male_vraiment_flat_141.wav,1,True,710,64,F,6,0.426259,-108.188423
21101959,12,0,2024-02-26T13:31:54.886Z,male_vraiment_flat_7.wav,0,False,2403,64,F,0,0.000000,43.823319
21101959,12,0,2024-02-26T13:31:54.886Z,male_vraiment_flat_7.wav,0,False,2403,64,F,1,0.071043,72.049148
21101959,12,0,2024-02-26T13:31:54.886Z,male_vraiment_flat_7.wav,0,False,2403,64,F,2,0.142086,-136.415247
21101959,12,0,2024-02-26T13:31:54.886Z,male_vraiment_flat_7.wav,0,False,2403,64,F,3,0.213129,44.015310
21101959,12,0,2024-02-26T13:31:54.886Z,male_vraiment_flat_7.wav,0,False,2403,64,F,4,0.284172,7.208530
21101959,12,0,2024-02-26T13:31:54.886Z,male_vraiment_flat_7.wav,0,False,2403,64,F,5,0.355215,18.587432
21101959,12,0,2024-02-26T13:31:54.886Z,male_vraiment_flat_7.wav,0,False,2403,64,F,6,0.426259,60.126473
21101959,12,0,2024-02-26T13:31:54.886Z,male_vraiment_flat_85.wav,1,True,2403,64,F,0,0.000000,16.220058
21101959,12,0,2024-02-26T13:31:54.886Z,male_vraiment_flat_85.wav,1,True,2403,64,F,1,0.071043,97.172848
21101959,12,0,2024-02-26T13:31:54.886Z,male_vraiment_flat_85.wav,1,True,2403,64,F,2,0.142086,121.919735
21101959,12,0,2024-02-26T13:31:54.886Z,male_vraiment_flat_85.wav,1,True,2403,64,F,3,0.213129,69.049273
21101959,12,0,2024-02-26T13:31:54.886Z,male_vraiment_flat_85.wav,1,True,2403,64,F,4,0.284172,124.256579
21101959,12,0,2024-02-26T13:31:54.886Z,male_vraiment_flat_85.wav,1,True,2403,64,F,5,0.355215,30.981006
21101959,12,0,2024-02-26T13:31:54.886Z,male_vraiment_flat_85.wav,1,True,2403,64,F,6,0.426259,-67.410158
21101959,13,0,2024-02-26T13:31:54.886Z,male_vraiment_flat_174.wav,0,False,2018,64,F,0,0.000000,12.449350
21101959,13,0,2024-02-26T13:31:54.886Z,male_vraiment_flat_174.wav,0,False,2018,64,F,1,0.071043,17.986555
21101959,13,0,2024-02-26T13:31:54.886Z,male_vraiment_flat_174.wav,0,False,2018,64,F,2,0.142086,-72.720888
21101959,13,0,2024-02-26T13:31:54.886Z,male_vraiment_flat_174.wav,0,False,2018,64,F,3,0.213129,41.369679
21101959,13,0,2024-02-26T13:31:54.886Z,male_vraiment_flat_174.wav,0,False,2018,64,F,4,0.284172,-146.787018
21101959,13,0,2024-02-26T13:31:54.886Z,male_vraiment_flat_174.wav,0,False,2018,64,F,5,0.355215,3.271800
21101959,13,0,2024-02-26T13:31:54.886Z,male_vraiment_flat_174.wav,0,False,2018,64,F,6,0.426259,26.686198
21101959,13,0,2024-02-26T13:31:54.886Z,male_vraiment_flat_156.wav,1,True,2018,64,F,0,0.000000,62.995907
21101959,13,0,2024-02-26T13:31:54.886Z,male_vraiment_flat_156.wav,1,True,2018,64,F,1,0.071043,-119.801161
21101959,13,0,2024-02-26T13:31:54.886Z,male_vraiment_flat_156.wav,1,True,2018,64,F,2,0.142086,-125.261471
21101959,13,0,2024-02-26T13:31:54.886Z,male_vraiment_flat_156.wav,1,True,2018,64,F,3,0.213129,110.918732
21101959,13,0,2024-02-26T13:31:54.886Z,male_vraiment_flat_156.wav,1,True,2018,64,F,4,0.284172,-27.635219
21101959,13,0,2024-02-26T13:31:54.886Z,male_vraiment_flat_156.wav,1,True,2018,64,F,5,0.355215,57.926930
21101959,13,0,2024-02-26T13:31:54.886Z,male_vraiment_flat_156.wav,1,True,2018,64,F,6,0.426259,-85.703842
21101959,14,0,2024-02-26T13:31:54.886Z,male_vraiment_flat_149.wav,0,False,1146,64,F,0,0.000000,17.402596
21101959,14,0,2024-02-26T13:31:54.886Z,male_vraiment_flat_149.wav,0,False,1146,64,F,1,0.071043,-44.390985
21101959,14,0,2024-02-26T13:31:54.886Z,male_vraiment_flat_149.wav,0,False,1146,64,F,2,0.142086,-32.370244
21101959,14,0,2024-02-26T13:31:54.886Z,male_vraiment_flat_149.wav,0,False,1146,64,F,3,0.213129,33.896100
21101959,14,0,2024-02-26T13:31:54.886Z,male_vraiment_flat_149.wav,0,False,1146,64,F,4,0.284172,130.098177
21101959,14,0,2024-02-26T13:31:54.886Z,male_vraiment_flat_149.wav,0,False,1146,64,F,5,0.355215,-117.346579
21101959,14,0,2024-02-26T13:31:54.886Z,male_vraiment_flat_149.wav,0,False,1146,64,F,6,0.426259,65.375118
21101959,14,0,2024-02-26T13:31:54.886Z,male_vraiment_flat_75.wav,1,True,1146,64,F,0,0.000000,-102.776376
21101959,14,0,2024-02-26T13:31:54.886Z,male_vraiment_flat_75.wav,1,True,1146,64,F,1,0.071043,141.116849
21101959,14,0,2024-02-26T13:31:54.886Z,male_vraiment_flat_75.wav,1,True,1146,64,F,2,0.142086,12.209007
21101959,14,0,2024-02-26T13:31:54.886Z,male_vraiment_flat_75.wav,1,True,1146,64,F,3,0.213129,-138.758513
21101959,14,0,2024-02-26T13:31:54.886Z,male_vraiment_flat_75.wav,1,True,1146,64,F,4,0.284172,4.940697
21101959,14,0,2024-02-26T13:31:54.886Z,male_vraiment_flat_75.wav,1,True,1146,64,F,5,0.355215,67.499606
21101959,14,0,2024-02-26T13:31:54.886Z,male_vraiment_flat_75.wav,1,True,1146,64,F,6,0.426259,61.725226
21101959,15,0,2024-02-26T13:31:54.886Z,male_vraiment_flat_124.wav,0,False,826,64,F,0,0.000000,-7.963711
21101959,15,0,2024-02-26T13:31:54.886Z,male_vraiment_flat_124.wav,0,False,826,64,F,1,0.071043,-56.081883
21101959,15,0,2024-02-26T13:31:54.886Z,male_vraiment_flat_124.wav,0,False,826,64,F,2,0.142086,-78.115299
21101959,15,0,2024-02-26T13:31:54.886Z,male_vraiment_flat_124.wav,0,False,826,64,F,3,0.213129,-24.811935
21101959,15,0,2024-02-26T13:31:54.886Z,male_vraiment_flat_124.wav,0,False,826,64,F,4,0.284172,-9.003272
21101959,15,0,2024-02-26T13:31:54.886Z,male_vraiment_flat_124.wav,0,False,826,64,F,5,0.355215,13.712214
21101959,15,0,2024-02-26T13:31:54.886Z,male_vraiment_flat_124.wav,0,False,826,64,F,6,0.426259,140.048390
21101959,15,0,2024-02-26T13:31:54.886Z,male_vraiment_flat_28.wav,1,True,826,64,F,0,0.000000,82.321174
21101959,15,0,2024-02-26T13:31:54.886Z,male_vraiment_flat_28.wav,1,True,826,64,F,1,0.071043,-139.171806
21101959,15,0,2024-02-26T13:31:54.886Z,male_vraiment_flat_28.wav,1,True,826,64,F,2,0.142086,-25.451767
21101959,15,0,2024-02-26T13:31:54.886Z,male_vraiment_flat_28.wav,1,True,826,64,F,3,0.213129,-113.179723
21101959,15,0,2024-02-26T13:31:54.886Z,male_vraiment_flat_28.wav,1,True,826,64,F,4,0.284172,-97.955774
21101959,15,0,2024-02-26T13:31:54.886Z,male_vraiment_flat_28.wav,1,True,826,64,F,5,0.355215,43.444463
21101959,15,0,2024-02-26T13:31:54.886Z,male_vraiment_flat_28.wav,1,True,826,64,F,6,0.426259,-9.291608
21101959,16,0,2024-02-26T13:31:54.886Z,male_vraiment_flat_115.wav,0,False,2021,64,F,0,0.000000,-100.568741
21101959,16,0,2024-02-26T13:31:54.886Z,male_vraiment_flat_115.wav,0,False,2021,64,F,1,0.071043,57.843647
21101959,16,0,2024-02-26T13:31:54.886Z,male_vraiment_flat_115.wav,0,False,2021,64,F,2,0.142086,-30.946862
21101959,16,0,2024-02-26T13:31:54.886Z,male_vraiment_flat_115.wav,0,False,2021,64,F,3,0.213129,-117.622484
21101959,16,0,2024-02-26T13:31:54.886Z,male_vraiment_flat_115.wav,0,False,2021,64,F,4,0.284172,12.634833
21101959,16,0,2024-02-26T13:31:54.886Z,male_vraiment_flat_115.wav,0,False,2021,64,F,5,0.355215,-81.533692
21101959,16,0,2024-02-26T13:31:54.886Z,male_vraiment_flat_115.wav,0,False,2021,64,F,6,0.426259,-72.293995
21101959,16,0,2024-02-26T13:31:54.886Z,male_vraiment_flat_161.wav,1,True,2021,64,F,0,0.000000,108.108554
21101959,16,0,2024-02-26T13:31:54.886Z,male_vraiment_flat_161.wav,1,True,2021,64,F,1,0.071043,47.804173
21101959,16,0,2024-02-26T13:31:54.886Z,male_vraiment_flat_161.wav,1,True,2021,64,F,2,0.142086,-38.721105
21101959,16,0,2024-02-26T13:31:54.886Z,male_vraiment_flat_161.wav,1,True,2021,64,F,3,0.213129,108.595174
21101959,16,0,2024-02-26T13:31:54.886Z,male_vraiment_flat_161.wav,1,True,2021,64,F,4,0.284172,94.751032
21101959,16,0,2024-02-26T13:31:54.886Z,male_vraiment_flat_161.wav,1,True,2021,64,F,5,0.355215,-22.399732
21101959,16,0,2024-02-26T13:31:54.886Z,male_vraiment_flat_161.wav,1,True,2021,64,F,6,0.426259,88.139884
21101959,17,0,2024-02-26T13:31:54.886Z,male_vraiment_flat_168.wav,0,False,1277,64,F,0,0.000000,20.996757
21101959,17,0,2024-02-26T13:31:54.886Z,male_vraiment_flat_168.wav,0,False,1277,64,F,1,0.071043,53.221671
21101959,17,0,2024-02-26T13:31:54.886Z,male_vraiment_flat_168.wav,0,False,1277,64,F,2,0.142086,15.731623
21101959,17,0,2024-02-26T13:31:54.886Z,male_vraiment_flat_168.wav,0,False,1277,64,F,3,0.213129,99.382807
21101959,17,0,2024-02-26T13:31:54.886Z,male_vraiment_flat_168.wav,0,False,1277,64,F,4,0.284172,-57.914754
21101959,17,0,2024-02-26T13:31:54.886Z,male_vraiment_flat_168.wav,0,False,1277,64,F,5,0.355215,26.961730
21101959,17,0,2024-02-26T13:31:54.886Z,male_vraiment_flat_168.wav,0,False,1277,64,F,6,0.426259,-63.149674
21101959,17,0,2024-02-26T13:31:54.886Z,male_vraiment_flat_27.wav,1,True,1277,64,F,0,0.000000,-44.196026
21101959,17,0,2024-02-26T13:31:54.886Z,male_vraiment_flat_27.wav,1,True,1277,64,F,1,0.071043,72.435582
21101959,17,0,2024-02-26T13:31:54.886Z,male_vraiment_flat_27.wav,1,True,1277,64,F,2,0.142086,30.880154
21101959,17,0,2024-02-26T13:31:54.886Z,male_vraiment_flat_27.wav,1,True,1277,64,F,3,0.213129,-98.055697
21101959,17,0,2024-02-26T13:31:54.886Z,male_vraiment_flat_27.wav,1,True,1277,64,F,4,0.284172,83.700413
21101959,17,0,2024-02-26T13:31:54.886Z,male_vraiment_flat_27.wav,1,True,1277,64,F,5,0.355215,23.865121
21101959,17,0,2024-02-26T13:31:54.886Z,male_vraiment_flat_27.wav,1,True,1277,64,F,6,0.426259,-44.006115
21101959,18,0,2024-02-26T13:31:54.886Z,male_vraiment_flat_48.wav,0,True,2806,64,F,0,0.000000,90.503303
21101959,18,0,2024-02-26T13:31:54.886Z,male_vraiment_flat_48.wav,0,True,2806,64,F,1,0.071043,6.970948
21101959,18,0,2024-02-26T13:31:54.886Z,male_vraiment_flat_48.wav,0,True,2806,64,F,2,0.142086,67.030496
21101959,18,0,2024-02-26T13:31:54.886Z,male_vraiment_flat_48.wav,0,True,2806,64,F,3,0.213129,131.765290
21101959,18,0,2024-02-26T13:31:54.886Z,male_vraiment_flat_48.wav,0,True,2806,64,F,4,0.284172,144.593501
21101959,18,0,2024-02-26T13:31:54.886Z,male_vraiment_flat_48.wav,0,True,2806,64,F,5,0.355215,16.017944
21101959,18,0,2024-02-26T13:31:54.886Z,male_vraiment_flat_48.wav,0,True,2806,64,F,6,0.426259,-146.021483
21101959,18,0,2024-02-26T13:31:54.886Z,male_vraiment_flat_25.wav,1,False,2806,64,F,0,0.000000,-129.422108
21101959,18,0,2024-02-26T13:31:54.886Z,male_vraiment_flat_25.wav,1,False,2806,64,F,1,0.071043,-12.331663
21101959,18,0,2024-02-26T13:31:54.886Z,male_vraiment_flat_25.wav,1,False,2806,64,F,2,0.142086,-97.065740
21101959,18,0,2024-02-26T13:31:54.886Z,male_vraiment_flat_25.wav,1,False,2806,64,F,3,0.213129,-6.253122
21101959,18,0,2024-02-26T13:31:54.886Z,male_vraiment_flat_25.wav,1,False,2806,64,F,4,0.284172,31.933743
21101959,18,0,2024-02-26T13:31:54.886Z,male_vraiment_flat_25.wav,1,False,2806,64,F,5,0.355215,-58.415946
21101959,18,0,2024-02-26T13:31:54.886Z,male_vraiment_flat_25.wav,1,False,2806,64,F,6,0.426259,117.143598
21101959,19,0,2024-02-26T13:31:54.886Z,male_vraiment_flat_32.wav,0,False,1166,64,F,0,0.000000,-83.957947
21101959,19,0,2024-02-26T13:31:54.886Z,male_vraiment_flat_32.wav,0,False,1166,64,F,1,0.071043,68.475222
21101959,19,0,2024-02-26T13:31:54.886Z,male_vraiment_flat_32.wav,0,False,1166,64,F,2,0.142086,-59.489465
21101959,19,0,2024-02-26T13:31:54.886Z,male_vraiment_flat_32.wav,0,False,1166,64,F,3,0.213129,64.566697
21101959,19,0,2024-02-26T13:31:54.886Z,male_vraiment_flat_32.wav,0,False,1166,64,F,4,0.284172,-27.267557
21101959,19,0,2024-02-26T13:31:54.886Z,male_vraiment_flat_32.wav,0,False,1166,64,F,5,0.355215,94.356275
21101959,19,0,2024-02-26T13:31:54.886Z,male_vraiment_flat_32.wav,0,False,1166,64,F,6,0.426259,27.666308
21101959,19,0,2024-02-26T13:31:54.886Z,male_vraiment_flat_169.wav,1,True,1166,64,F,0,0.000000,117.441793
21101959,19,0,2024-02-26T13:31:54.886Z,male_vraiment_flat_169.wav,1,True,1166,64,F,1,0.071043,-117.459261
21101959,19,0,2024-02-26T13:31:54.886Z,male_vraiment_flat_169.wav,1,True,1166,64,F,2,0.142086,-45.020491
21101959,19,0,2024-02-26T13:31:54.886Z,male_vraiment_flat_169.wav,1,True,1166,64,F,3,0.213129,-67.699150
21101959,19,0,2024-02-26T13:31:54.886Z,male_vraiment_flat_169.wav,1,True,1166,64,F,4,0.284172,-122.755451
21101959,19,0,2024-02-26T13:31:54.886Z,male_vraiment_flat_169.wav,1,True,1166,64,F,5,0.355215,-10.702133
21101959,19,0,2024-02-26T13:31:54.886Z,male_vraiment_flat_169.wav,1,True,1166,64,F,6,0.426259,66.943327
21101959,20,0,2024-02-26T13:31:54.886Z,male_vraiment_flat_182.wav,0,True,1410,64,F,0,0.000000,20.855134
21101959,20,0,2024-02-26T13:31:54.886Z,male_vraiment_flat_182.wav,0,True,1410,64,F,1,0.071043,131.000404
21101959,20,0,2024-02-26T13:31:54.886Z,male_vraiment_flat_182.wav,0,True,1410,64,F,2,0.142086,-24.691908
21101959,20,0,2024-02-26T13:31:54.886Z,male_vraiment_flat_182.wav,0,True,1410,64,F,3,0.213129,128.422786
21101959,20,0,2024-02-26T13:31:54.886Z,male_vraiment_flat_182.wav,0,True,1410,64,F,4,0.284172,-128.848387
21101959,20,0,2024-02-26T13:31:54.886Z,male_vraiment_flat_182.wav,0,True,1410,64,F,5,0.355215,118.792618
21101959,20,0,2024-02-26T13:31:54.886Z,male_vraiment_flat_182.wav,0,True,1410,64,F,6,0.426259,-92.475253
21101959,20,0,2024-02-26T13:31:54.886Z,male_vraiment_flat_132.wav,1,False,1410,64,F,0,0.000000,-95.735908
21101959,20,0,2024-02-26T13:31:54.886Z,male_vraiment_flat_132.wav,1,False,1410,64,F,1,0.071043,84.596174
21101959,20,0,2024-02-26T13:31:54.886Z,male_vraiment_flat_132.wav,1,False,1410,64,F,2,0.142086,30.815879
21101959,20,0,2024-02-26T13:31:54.886Z,male_vraiment_flat_132.wav,1,False,1410,64,F,3,0.213129,80.998062
21101959,20,0,2024-02-26T13:31:54.886Z,male_vraiment_flat_132.wav,1,False,1410,64,F,4,0.284172,4.635713
21101959,20,0,2024-02-26T13:31:54.886Z,male_vraiment_flat_132.wav,1,False,1410,64,F,5,0.355215,-66.322755
21101959,20,0,2024-02-26T13:31:54.886Z,male_vraiment_flat_132.wav,1,False,1410,64,F,6,0.426259,13.571979
21101959,21,0,2024-02-26T13:31:54.886Z,male_vraiment_flat_100.wav,0,False,1452,64,F,0,0.000000,43.543409
21101959,21,0,2024-02-26T13:31:54.886Z,male_vraiment_flat_100.wav,0,False,1452,64,F,1,0.071043,103.015481
21101959,21,0,2024-02-26T13:31:54.886Z,male_vraiment_flat_100.wav,0,False,1452,64,F,2,0.142086,72.119204
21101959,21,0,2024-02-26T13:31:54.886Z,male_vraiment_flat_100.wav,0,False,1452,64,F,3,0.213129,-134.244223
21101959,21,0,2024-02-26T13:31:54.886Z,male_vraiment_flat_100.wav,0,False,1452,64,F,4,0.284172,118.896008
21101959,21,0,2024-02-26T13:31:54.886Z,male_vraiment_flat_100.wav,0,False,1452,64,F,5,0.355215,-31.136245
21101959,21,0,2024-02-26T13:31:54.886Z,male_vraiment_flat_100.wav,0,False,1452,64,F,6,0.426259,41.834207
21101959,21,0,2024-02-26T13:31:54.886Z,male_vraiment_flat_180.wav,1,True,1452,64,F,0,0.000000,-17.910938
21101959,21,0,2024-02-26T13:31:54.886Z,male_vraiment_flat_180.wav,1,True,1452,64,F,1,0.071043,24.825304
21101959,21,0,2024-02-26T13:31:54.886Z,male_vraiment_flat_180.wav,1,True,1452,64,F,2,0.142086,-141.305904
21101959,21,0,2024-02-26T13:31:54.886Z,male_vraiment_flat_180.wav,1,True,1452,64,F,3,0.213129,39.379988
21101959,21,0,2024-02-26T13:31:54.886Z,male_vraiment_flat_180.wav,1,True,1452,64,F,4,0.284172,-132.932424
21101959,21,0,2024-02-26T13:31:54.886Z,male_vraiment_flat_180.wav,1,True,1452,64,F,5,0.355215,-6.123363
21101959,21,0,2024-02-26T13:31:54.886Z,male_vraiment_flat_180.wav,1,True,1452,64,F,6,0.426259,-0.737662
21101959,22,0,2024-02-26T13:31:54.886Z,male_vraiment_flat_185.wav,0,True,1261,64,F,0,0.000000,7.537788
21101959,22,0,2024-02-26T13:31:54.886Z,male_vraiment_flat_185.wav,0,True,1261,64,F,1,0.071043,138.761382
21101959,22,0,2024-02-26T13:31:54.886Z,male_vraiment_flat_185.wav,0,True,1261,64,F,2,0.142086,88.970452
21101959,22,0,2024-02-26T13:31:54.886Z,male_vraiment_flat_185.wav,0,True,1261,64,F,3,0.213129,-106.980409
21101959,22,0,2024-02-26T13:31:54.886Z,male_vraiment_flat_185.wav,0,True,1261,64,F,4,0.284172,-72.334155
21101959,22,0,2024-02-26T13:31:54.886Z,male_vraiment_flat_185.wav,0,True,1261,64,F,5,0.355215,87.356426
21101959,22,0,2024-02-26T13:31:54.886Z,male_vraiment_flat_185.wav,0,True,1261,64,F,6,0.426259,90.917936
21101959,22,0,2024-02-26T13:31:54.886Z,male_vraiment_flat_54.wav,1,False,1261,64,F,0,0.000000,117.470857
21101959,22,0,2024-02-26T13:31:54.886Z,male_vraiment_flat_54.wav,1,False,1261,64,F,1,0.071043,-78.886002
21101959,22,0,2024-02-26T13:31:54.886Z,male_vraiment_flat_54.wav,1,False,1261,64,F,2,0.142086,14.587652
21101959,22,0,2024-02-26T13:31:54.886Z,male_vraiment_flat_54.wav,1,False,1261,64,F,3,0.213129,69.368451
21101959,22,0,2024-02-26T13:31:54.886Z,male_vraiment_flat_54.wav,1,False,1261,64,F,4,0.284172,64.657305
21101959,22,0,2024-02-26T13:31:54.886Z,male_vraiment_flat_54.wav,1,False,1261,64,F,5,0.355215,7.845227
21101959,22,0,2024-02-26T13:31:54.886Z,male_vraiment_flat_54.wav,1,False,1261,64,F,6,0.426259,-11.003085
21101959,23,0,2024-02-26T13:31:54.886Z,male_vraiment_flat_198.wav,0,True,1831,64,F,0,0.000000,-103.630506
21101959,23,0,2024-02-26T13:31:54.886Z,male_vraiment_flat_198.wav,0,True,1831,64,F,1,0.071043,-84.165473
21101959,23,0,2024-02-26T13:31:54.886Z,male_vraiment_flat_198.wav,0,True,1831,64,F,2,0.142086,-14.577431
21101959,23,0,2024-02-26T13:31:54.886Z,male_vraiment_flat_198.wav,0,True,1831,64,F,3,0.213129,28.146235
21101959,23,0,2024-02-26T13:31:54.886Z,male_vraiment_flat_198.wav,0,True,1831,64,F,4,0.284172,-80.575165
21101959,23,0,2024-02-26T13:31:54.886Z,male_vraiment_flat_198.wav,0,True,1831,64,F,5,0.355215,-32.118902
21101959,23,0,2024-02-26T13:31:54.886Z,male_vraiment_flat_198.wav,0,True,1831,64,F,6,0.426259,78.303148
21101959,23,0,2024-02-26T13:31:54.886Z,male_vraiment_flat_167.wav,1,False,1831,64,F,0,0.000000,-97.244470
21101959,23,0,2024-02-26T13:31:54.886Z,male_vraiment_flat_167.wav,1,False,1831,64,F,1,0.071043,55.519403
21101959,23,0,2024-02-26T13:31:54.886Z,male_vraiment_flat_167.wav,1,False,1831,64,F,2,0.142086,-125.285214
21101959,23,0,2024-02-26T13:31:54.886Z,male_vraiment_flat_167.wav,1,False,1831,64,F,3,0.213129,-87.843825
21101959,23,0,2024-02-26T13:31:54.886Z,male_vraiment_flat_167.wav,1,False,1831,64,F,4,0.284172,-127.750284
21101959,23,0,2024-02-26T13:31:54.886Z,male_vraiment_flat_167.wav,1,False,1831,64,F,5,0.355215,-93.631866
21101959,23,0,2024-02-26T13:31:54.886Z,male_vraiment_flat_167.wav,1,False,1831,64,F,6,0.426259,6.691804
21101959,24,0,2024-02-26T13:31:54.886Z,male_vraiment_flat_193.wav,0,True,1128,64,F,0,0.000000,-104.498046
21101959,24,0,2024-02-26T13:31:54.886Z,male_vraiment_flat_193.wav,0,True,1128,64,F,1,0.071043,27.454942
21101959,24,0,2024-02-26T13:31:54.886Z,male_vraiment_flat_193.wav,0,True,1128,64,F,2,0.142086,-81.084240
21101959,24,0,2024-02-26T13:31:54.886Z,male_vraiment_flat_193.wav,0,True,1128,64,F,3,0.213129,-66.105426
21101959,24,0,2024-02-26T13:31:54.886Z,male_vraiment_flat_193.wav,0,True,1128,64,F,4,0.284172,-18.843418
21101959,24,0,2024-02-26T13:31:54.886Z,male_vraiment_flat_193.wav,0,True,1128,64,F,5,0.355215,59.447118
21101959,24,0,2024-02-26T13:31:54.886Z,male_vraiment_flat_193.wav,0,True,1128,64,F,6,0.426259,86.357299
21101959,24,0,2024-02-26T13:31:54.886Z,male_vraiment_flat_23.wav,1,False,1128,64,F,0,0.000000,27.345676
21101959,24,0,2024-02-26T13:31:54.886Z,male_vraiment_flat_23.wav,1,False,1128,64,F,1,0.071043,118.378449
21101959,24,0,2024-02-26T13:31:54.886Z,male_vraiment_flat_23.wav,1,False,1128,64,F,2,0.142086,35.467907
21101959,24,0,2024-02-26T13:31:54.886Z,male_vraiment_flat_23.wav,1,False,1128,64,F,3,0.213129,-5.979973
21101959,24,0,2024-02-26T13:31:54.886Z,male_vraiment_flat_23.wav,1,False,1128,64,F,4,0.284172,18.578162
21101959,24,0,2024-02-26T13:31:54.886Z,male_vraiment_flat_23.wav,1,False,1128,64,F,5,0.355215,-9.540782
21101959,24,0,2024-02-26T13:31:54.886Z,male_vraiment_flat_23.wav,1,False,1128,64,F,6,0.426259,-13.092534
21101959,25,0,2024-02-26T13:31:54.886Z,male_vraiment_flat_31.wav,0,False,2327,64,F,0,0.000000,-118.123136
21101959,25,0,2024-02-26T13:31:54.886Z,male_vraiment_flat_31.wav,0,False,2327,64,F,1,0.071043,-54.324615
21101959,25,0,2024-02-26T13:31:54.886Z,male_vraiment_flat_31.wav,0,False,2327,64,F,2,0.142086,-56.463303
21101959,25,0,2024-02-26T13:31:54.886Z,male_vraiment_flat_31.wav,0,False,2327,64,F,3,0.213129,65.563679
21101959,25,0,2024-02-26T13:31:54.886Z,male_vraiment_flat_31.wav,0,False,2327,64,F,4,0.284172,91.438424
21101959,25,0,2024-02-26T13:31:54.886Z,male_vraiment_flat_31.wav,0,False,2327,64,F,5,0.355215,-2.661707
21101959,25,0,2024-02-26T13:31:54.886Z,male_vraiment_flat_31.wav,0,False,2327,64,F,6,0.426259,-48.318391
21101959,25,0,2024-02-26T13:31:54.886Z,male_vraiment_flat_12.wav,1,True,2327,64,F,0,0.000000,-11.936919
21101959,25,0,2024-02-26T13:31:54.886Z,male_vraiment_flat_12.wav,1,True,2327,64,F,1,0.071043,-51.249998
21101959,25,0,2024-02-26T13:31:54.886Z,male_vraiment_flat_12.wav,1,True,2327,64,F,2,0.142086,42.322915
21101959,25,0,2024-02-26T13:31:54.886Z,male_vraiment_flat_12.wav,1,True,2327,64,F,3,0.213129,-19.839410
21101959,25,0,2024-02-26T13:31:54.886Z,male_vraiment_flat_12.wav,1,True,2327,64,F,4,0.284172,46.127041
21101959,25,0,2024-02-26T13:31:54.886Z,male_vraiment_flat_12.wav,1,True,2327,64,F,5,0.355215,34.596861
21101959,25,0,2024-02-26T13:31:54.886Z,male_vraiment_flat_12.wav,1,True,2327,64,F,6,0.426259,143.594573
21101959,26,0,2024-02-26T13:31:54.886Z,male_vraiment_flat_184.wav,0,True,2117,64,F,0,0.000000,86.245131
21101959,26,0,2024-02-26T13:31:54.886Z,male_vraiment_flat_184.wav,0,True,2117,64,F,1,0.071043,106.604050
21101959,26,0,2024-02-26T13:31:54.886Z,male_vraiment_flat_184.wav,0,True,2117,64,F,2,0.142086,-48.425154
21101959,26,0,2024-02-26T13:31:54.886Z,male_vraiment_flat_184.wav,0,True,2117,64,F,3,0.213129,48.927001
21101959,26,0,2024-02-26T13:31:54.886Z,male_vraiment_flat_184.wav,0,True,2117,64,F,4,0.284172,-82.972934
21101959,26,0,2024-02-26T13:31:54.886Z,male_vraiment_flat_184.wav,0,True,2117,64,F,5,0.355215,73.552976
21101959,26,0,2024-02-26T13:31:54.886Z,male_vraiment_flat_184.wav,0,True,2117,64,F,6,0.426259,-131.359115
21101959,26,0,2024-02-26T13:31:54.886Z,male_vraiment_flat_119.wav,1,False,2117,64,F,0,0.000000,-44.932226
21101959,26,0,2024-02-26T13:31:54.886Z,male_vraiment_flat_119.wav,1,False,2117,64,F,1,0.071043,12.460519
21101959,26,0,2024-02-26T13:31:54.886Z,male_vraiment_flat_119.wav,1,False,2117,64,F,2,0.142086,58.855712
21101959,26,0,2024-02-26T13:31:54.886Z,male_vraiment_flat_119.wav,1,False,2117,64,F,3,0.213129,26.967779
21101959,26,0,2024-02-26T13:31:54.886Z,male_vraiment_flat_119.wav,1,False,2117,64,F,4,0.284172,139.969902
21101959,26,0,2024-02-26T13:31:54.886Z,male_vraiment_flat_119.wav,1,False,2117,64,F,5,0.355215,49.325586
21101959,26,0,2024-02-26T13:31:54.886Z,male_vraiment_flat_119.wav,1,False,2117,64,F,6,0.426259,89.552624
21101959,27,0,2024-02-26T13:31:54.886Z,male_vraiment_flat_159.wav,0,True,1063,64,F,0,0.000000,-84.088119
21101959,27,0,2024-02-26T13:31:54.886Z,male_vraiment_flat_159.wav,0,True,1063,64,F,1,0.071043,11.677970
21101959,27,0,2024-02-26T13:31:54.886Z,male_vraiment_flat_159.wav,0,True,1063,64,F,2,0.142086,70.948823
21101959,27,0,2024-02-26T13:31:54.886Z,male_vraiment_flat_159.wav,0,True,1063,64,F,3,0.213129,101.030552
21101959,27,0,2024-02-26T13:31:54.886Z,male_vraiment_flat_159.wav,0,True,1063,64,F,4,0.284172,35.233409
21101959,27,0,2024-02-26T13:31:54.886Z,male_vraiment_flat_159.wav,0,True,1063,64,F,5,0.355215,70.014692
21101959,27,0,2024-02-26T13:31:54.886Z,male_vraiment_flat_159.wav,0,True,1063,64,F,6,0.426259,-21.284009
21101959,27,0,2024-02-26T13:31:54.886Z,male_vraiment_flat_10.wav,1,False,1063,64,F,0,0.000000,-59.283835
21101959,27,0,2024-02-26T13:31:54.886Z,male_vraiment_flat_10.wav,1,False,1063,64,F,1,0.071043,33.418752
21101959,27,0,2024-02-26T13:31:54.886Z,male_vraiment_flat_10.wav,1,False,1063,64,F,2,0.142086,-98.686452
21101959,27,0,2024-02-26T13:31:54.886Z,male_vraiment_flat_10.wav,1,False,1063,64,F,3,0.213129,137.870403
21101959,27,0,2024-02-26T13:31:54.886Z,male_vraiment_flat_10.wav,1,False,1063,64,F,4,0.284172,-113.384751
21101959,27,0,2024-02-26T13:31:54.886Z,male_vraiment_flat_10.wav,1,False,1063,64,F,5,0.355215,-122.497954
21101959,27,0,2024-02-26T13:31:54.886Z,male_vraiment_flat_10.wav,1,False,1063,64,F,6,0.426259,-121.154526
21101959,28,0,2024-02-26T13:31:54.886Z,male_vraiment_flat_39.wav,0,False,1507,64,F,0,0.000000,111.266402
21101959,28,0,2024-02-26T13:31:54.886Z,male_vraiment_flat_39.wav,0,False,1507,64,F,1,0.071043,99.799676
21101959,28,0,2024-02-26T13:31:54.886Z,male_vraiment_flat_39.wav,0,False,1507,64,F,2,0.142086,45.272629
21101959,28,0,2024-02-26T13:31:54.886Z,male_vraiment_flat_39.wav,0,False,1507,64,F,3,0.213129,-145.406877
21101959,28,0,2024-02-26T13:31:54.886Z,male_vraiment_flat_39.wav,0,False,1507,64,F,4,0.284172,46.363124
21101959,28,0,2024-02-26T13:31:54.886Z,male_vraiment_flat_39.wav,0,False,1507,64,F,5,0.355215,90.908213
21101959,28,0,2024-02-26T13:31:54.886Z,male_vraiment_flat_39.wav,0,False,1507,64,F,6,0.426259,-13.802222
21101959,28,0,2024-02-26T13:31:54.886Z,male_vraiment_flat_192.wav,1,True,1507,64,F,0,0.000000,46.973159
21101959,28,0,2024-02-26T13:31:54.886Z,male_vraiment_flat_192.wav,1,True,1507,64,F,1,0.071043,-61.711820
21101959,28,0,2024-02-26T13:31:54.886Z,male_vraiment_flat_192.wav,1,True,1507,64,F,2,0.142086,14.836428
21101959,28,0,2024-02-26T13:31:54.886Z,male_vraiment_flat_192.wav,1,True,1507,64,F,3,0.213129,30.862549
21101959,28,0,2024-02-26T13:31:54.886Z,male_vraiment_flat_192.wav,1,True,1507,64,F,4,0.284172,28.459321
21101959,28,0,2024-02-26T13:31:54.886Z,male_vraiment_flat_192.wav,1,True,1507,64,F,5,0.355215,2.114815
21101959,28,0,2024-02-26T13:31:54.886Z,male_vraiment_flat_192.wav,1,True,1507,64,F,6,0.426259,86.651936
21101959,29,0,2024-02-26T13:31:54.886Z,male_vraiment_flat_18.wav,0,False,1309,64,F,0,0.000000,-126.424441
21101959,29,0,2024-02-26T13:31:54.886Z,male_vraiment_flat_18.wav,0,False,1309,64,F,1,0.071043,-57.286238
21101959,29,0,2024-02-26T13:31:54.886Z,male_vraiment_flat_18.wav,0,False,1309,64,F,2,0.142086,14.494248
21101959,29,0,2024-02-26T13:31:54.886Z,male_vraiment_flat_18.wav,0,False,1309,64,F,3,0.213129,11.325267
21101959,29,0,2024-02-26T13:31:54.886Z,male_vraiment_flat_18.wav,0,False,1309,64,F,4,0.284172,-20.022709
21101959,29,0,2024-02-26T13:31:54.886Z,male_vraiment_flat_18.wav,0,False,1309,64,F,5,0.355215,-67.838631
21101959,29,0,2024-02-26T13:31:54.886Z,male_vraiment_flat_18.wav,0,False,1309,64,F,6,0.426259,-75.619086
21101959,29,0,2024-02-26T13:31:54.886Z,male_vraiment_flat_188.wav,1,True,1309,64,F,0,0.000000,-11.484944
21101959,29,0,2024-02-26T13:31:54.886Z,male_vraiment_flat_188.wav,1,True,1309,64,F,1,0.071043,-70.368872
21101959,29,0,2024-02-26T13:31:54.886Z,male_vraiment_flat_188.wav,1,True,1309,64,F,2,0.142086,-35.616146
21101959,29,0,2024-02-26T13:31:54.886Z,male_vraiment_flat_188.wav,1,True,1309,64,F,3,0.213129,0.109627
21101959,29,0,2024-02-26T13:31:54.886Z,male_vraiment_flat_188.wav,1,True,1309,64,F,4,0.284172,2.553157
21101959,29,0,2024-02-26T13:31:54.886Z,male_vraiment_flat_188.wav,1,True,1309,64,F,5,0.355215,-21.302793
21101959,29,0,2024-02-26T13:31:54.886Z,male_vraiment_flat_188.wav,1,True,1309,64,F,6,0.426259,-116.307336
21101959,30,0,2024-02-26T13:31:54.886Z,male_vraiment_flat_110.wav,0,True,1813,64,F,0,0.000000,-78.850505
21101959,30,0,2024-02-26T13:31:54.886Z,male_vraiment_flat_110.wav,0,True,1813,64,F,1,0.071043,-96.953533
21101959,30,0,2024-02-26T13:31:54.886Z,male_vraiment_flat_110.wav,0,True,1813,64,F,2,0.142086,-38.365791
21101959,30,0,2024-02-26T13:31:54.886Z,male_vraiment_flat_110.wav,0,True,1813,64,F,3,0.213129,77.506607
21101959,30,0,2024-02-26T13:31:54.886Z,male_vraiment_flat_110.wav,0,True,1813,64,F,4,0.284172,-64.506238
21101959,30,0,2024-02-26T13:31:54.886Z,male_vraiment_flat_110.wav,0,True,1813,64,F,5,0.355215,15.353748
21101959,30,0,2024-02-26T13:31:54.886Z,male_vraiment_flat_110.wav,0,True,1813,64,F,6,0.426259,121.287299
21101959,30,0,2024-02-26T13:31:54.886Z,male_vraiment_flat_157.wav,1,False,1813,64,F,0,0.000000,20.473057
21101959,30,0,2024-02-26T13:31:54.886Z,male_vraiment_flat_157.wav,1,False,1813,64,F,1,0.071043,-103.427341
21101959,30,0,2024-02-26T13:31:54.886Z,male_vraiment_flat_157.wav,1,False,1813,64,F,2,0.142086,-58.670290
21101959,30,0,2024-02-26T13:31:54.886Z,male_vraiment_flat_157.wav,1,False,1813,64,F,3,0.213129,-88.181786
21101959,30,0,2024-02-26T13:31:54.886Z,male_vraiment_flat_157.wav,1,False,1813,64,F,4,0.284172,-145.892431
21101959,30,0,2024-02-26T13:31:54.886Z,male_vraiment_flat_157.wav,1,False,1813,64,F,5,0.355215,-121.197130
21101959,30,0,2024-02-26T13:31:54.886Z,male_vraiment_flat_157.wav,1,False,1813,64,F,6,0.426259,3.215116
21101959,31,0,2024-02-26T13:31:54.886Z,male_vraiment_flat_171.wav,0,False,1447,64,F,0,0.000000,-132.910898
21101959,31,0,2024-02-26T13:31:54.886Z,male_vraiment_flat_171.wav,0,False,1447,64,F,1,0.071043,-40.348113
21101959,31,0,2024-02-26T13:31:54.886Z,male_vraiment_flat_171.wav,0,False,1447,64,F,2,0.142086,-144.469254
21101959,31,0,2024-02-26T13:31:54.886Z,male_vraiment_flat_171.wav,0,False,1447,64,F,3,0.213129,-148.365603
21101959,31,0,2024-02-26T13:31:54.886Z,male_vraiment_flat_171.wav,0,False,1447,64,F,4,0.284172,29.209812
21101959,31,0,2024-02-26T13:31:54.886Z,male_vraiment_flat_171.wav,0,False,1447,64,F,5,0.355215,-68.789467
21101959,31,0,2024-02-26T13:31:54.886Z,male_vraiment_flat_171.wav,0,False,1447,64,F,6,0.426259,116.539457
21101959,31,0,2024-02-26T13:31:54.886Z,male_vraiment_flat_187.wav,1,True,1447,64,F,0,0.000000,-30.403680
21101959,31,0,2024-02-26T13:31:54.886Z,male_vraiment_flat_187.wav,1,True,1447,64,F,1,0.071043,-60.531290
21101959,31,0,2024-02-26T13:31:54.886Z,male_vraiment_flat_187.wav,1,True,1447,64,F,2,0.142086,-84.335778
21101959,31,0,2024-02-26T13:31:54.886Z,male_vraiment_flat_187.wav,1,True,1447,64,F,3,0.213129,-15.670285
21101959,31,0,2024-02-26T13:31:54.886Z,male_vraiment_flat_187.wav,1,True,1447,64,F,4,0.284172,-56.852158
21101959,31,0,2024-02-26T13:31:54.886Z,male_vraiment_flat_187.wav,1,True,1447,64,F,5,0.355215,50.399162
21101959,31,0,2024-02-26T13:31:54.886Z,male_vraiment_flat_187.wav,1,True,1447,64,F,6,0.426259,83.384475
21101959,32,0,2024-02-26T13:31:54.886Z,male_vraiment_flat_125.wav,0,True,3318,64,F,0,0.000000,-40.862052
21101959,32,0,2024-02-26T13:31:54.886Z,male_vraiment_flat_125.wav,0,True,3318,64,F,1,0.071043,93.193290
21101959,32,0,2024-02-26T13:31:54.886Z,male_vraiment_flat_125.wav,0,True,3318,64,F,2,0.142086,71.046063
21101959,32,0,2024-02-26T13:31:54.886Z,male_vraiment_flat_125.wav,0,True,3318,64,F,3,0.213129,-144.093496
21101959,32,0,2024-02-26T13:31:54.886Z,male_vraiment_flat_125.wav,0,True,3318,64,F,4,0.284172,-1.218193
21101959,32,0,2024-02-26T13:31:54.886Z,male_vraiment_flat_125.wav,0,True,3318,64,F,5,0.355215,94.223966
21101959,32,0,2024-02-26T13:31:54.886Z,male_vraiment_flat_125.wav,0,True,3318,64,F,6,0.426259,-56.349938
21101959,32,0,2024-02-26T13:31:54.886Z,male_vraiment_flat_138.wav,1,False,3318,64,F,0,0.000000,-29.536298
21101959,32,0,2024-02-26T13:31:54.886Z,male_vraiment_flat_138.wav,1,False,3318,64,F,1,0.071043,90.685935
21101959,32,0,2024-02-26T13:31:54.886Z,male_vraiment_flat_138.wav,1,False,3318,64,F,2,0.142086,-77.044346
21101959,32,0,2024-02-26T13:31:54.886Z,male_vraiment_flat_138.wav,1,False,3318,64,F,3,0.213129,-75.264885
21101959,32,0,2024-02-26T13:31:54.886Z,male_vraiment_flat_138.wav,1,False,3318,64,F,4,0.284172,-129.490236
21101959,32,0,2024-02-26T13:31:54.886Z,male_vraiment_flat_138.wav,1,False,3318,64,F,5,0.355215,-48.940612
21101959,32,0,2024-02-26T13:31:54.886Z,male_vraiment_flat_138.wav,1,False,3318,64,F,6,0.426259,-95.647001
21101959,33,0,2024-02-26T13:31:54.886Z,male_vraiment_flat_68.wav,0,False,1753,64,F,0,0.000000,-95.161618
21101959,33,0,2024-02-26T13:31:54.886Z,male_vraiment_flat_68.wav,0,False,1753,64,F,1,0.071043,-119.152564
21101959,33,0,2024-02-26T13:31:54.886Z,male_vraiment_flat_68.wav,0,False,1753,64,F,2,0.142086,18.051976
21101959,33,0,2024-02-26T13:31:54.886Z,male_vraiment_flat_68.wav,0,False,1753,64,F,3,0.213129,-26.870716
21101959,33,0,2024-02-26T13:31:54.886Z,male_vraiment_flat_68.wav,0,False,1753,64,F,4,0.284172,87.472746
21101959,33,0,2024-02-26T13:31:54.886Z,male_vraiment_flat_68.wav,0,False,1753,64,F,5,0.355215,-56.607347
21101959,33,0,2024-02-26T13:31:54.886Z,male_vraiment_flat_68.wav,0,False,1753,64,F,6,0.426259,148.066508
21101959,33,0,2024-02-26T13:31:54.886Z,male_vraiment_flat_61.wav,1,True,1753,64,F,0,0.000000,-131.156457
21101959,33,0,2024-02-26T13:31:54.886Z,male_vraiment_flat_61.wav,1,True,1753,64,F,1,0.071043,-97.865916
21101959,33,0,2024-02-26T13:31:54.886Z,male_vraiment_flat_61.wav,1,True,1753,64,F,2,0.142086,61.528867
21101959,33,0,2024-02-26T13:31:54.886Z,male_vraiment_flat_61.wav,1,True,1753,64,F,3,0.213129,-10.532302
21101959,33,0,2024-02-26T13:31:54.886Z,male_vraiment_flat_61.wav,1,True,1753,64,F,4,0.284172,-59.471070
21101959,33,0,2024-02-26T13:31:54.886Z,male_vraiment_flat_61.wav,1,True,1753,64,F,5,0.355215,77.665776
21101959,33,0,2024-02-26T13:31:54.886Z,male_vraiment_flat_61.wav,1,True,1753,64,F,6,0.426259,-95.375701
21101959,34,0,2024-02-26T13:31:54.886Z,male_vraiment_flat_51.wav,0,False,657,64,F,0,0.000000,130.517111
21101959,34,0,2024-02-26T13:31:54.886Z,male_vraiment_flat_51.wav,0,False,657,64,F,1,0.071043,138.869679
21101959,34,0,2024-02-26T13:31:54.886Z,male_vraiment_flat_51.wav,0,False,657,64,F,2,0.142086,-34.276776
21101959,34,0,2024-02-26T13:31:54.886Z,male_vraiment_flat_51.wav,0,False,657,64,F,3,0.213129,76.935346
21101959,34,0,2024-02-26T13:31:54.886Z,male_vraiment_flat_51.wav,0,False,657,64,F,4,0.284172,-118.523911
21101959,34,0,2024-02-26T13:31:54.886Z,male_vraiment_flat_51.wav,0,False,657,64,F,5,0.355215,-103.328524
21101959,34,0,2024-02-26T13:31:54.886Z,male_vraiment_flat_51.wav,0,False,657,64,F,6,0.426259,-14.442096
21101959,34,0,2024-02-26T13:31:54.886Z,male_vraiment_flat_135.wav,1,True,657,64,F,0,0.000000,69.664553
21101959,34,0,2024-02-26T13:31:54.886Z,male_vraiment_flat_135.wav,1,True,657,64,F,1,0.071043,-40.692966
21101959,34,0,2024-02-26T13:31:54.886Z,male_vraiment_flat_135.wav,1,True,657,64,F,2,0.142086,-94.283336
21101959,34,0,2024-02-26T13:31:54.886Z,male_vraiment_flat_135.wav,1,True,657,64,F,3,0.213129,7.777910
21101959,34,0,2024-02-26T13:31:54.886Z,male_vraiment_flat_135.wav,1,True,657,64,F,4,0.284172,26.713191
21101959,34,0,2024-02-26T13:31:54.886Z,male_vraiment_flat_135.wav,1,True,657,64,F,5,0.355215,137.292776
21101959,34,0,2024-02-26T13:31:54.886Z,male_vraiment_flat_135.wav,1,True,657,64,F,6,0.426259,-136.153804
21101959,35,0,2024-02-26T13:31:54.886Z,male_vraiment_flat_6.wav,0,True,2694,64,F,0,0.000000,99.637695
21101959,35,0,2024-02-26T13:31:54.886Z,male_vraiment_flat_6.wav,0,True,2694,64,F,1,0.071043,129.019395
21101959,35,0,2024-02-26T13:31:54.886Z,male_vraiment_flat_6.wav,0,True,2694,64,F,2,0.142086,85.352544
21101959,35,0,2024-02-26T13:31:54.886Z,male_vraiment_flat_6.wav,0,True,2694,64,F,3,0.213129,122.275637
21101959,35,0,2024-02-26T13:31:54.886Z,male_vraiment_flat_6.wav,0,True,2694,64,F,4,0.284172,45.838224
21101959,35,0,2024-02-26T13:31:54.886Z,male_vraiment_flat_6.wav,0,True,2694,64,F,5,0.355215,149.126562
21101959,35,0,2024-02-26T13:31:54.886Z,male_vraiment_flat_6.wav,0,True,2694,64,F,6,0.426259,9.632372
21101959,35,0,2024-02-26T13:31:54.886Z,male_vraiment_flat_24.wav,1,False,2694,64,F,0,0.000000,-144.276814
21101959,35,0,2024-02-26T13:31:54.886Z,male_vraiment_flat_24.wav,1,False,2694,64,F,1,0.071043,-59.436611
21101959,35,0,2024-02-26T13:31:54.886Z,male_vraiment_flat_24.wav,1,False,2694,64,F,2,0.142086,45.565590
21101959,35,0,2024-02-26T13:31:54.886Z,male_vraiment_flat_24.wav,1,False,2694,64,F,3,0.213129,19.626340
21101959,35,0,2024-02-26T13:31:54.886Z,male_vraiment_flat_24.wav,1,False,2694,64,F,4,0.284172,-127.586662
21101959,35,0,2024-02-26T13:31:54.886Z,male_vraiment_flat_24.wav,1,False,2694,64,F,5,0.355215,59.214853
21101959,35,0,2024-02-26T13:31:54.886Z,male_vraiment_flat_24.wav,1,False,2694,64,F,6,0.426259,-70.996219
21101959,36,0,2024-02-26T13:31:54.886Z,male_vraiment_flat_69.wav,0,False,1164,64,F,0,0.000000,-3.170538
21101959,36,0,2024-02-26T13:31:54.886Z,male_vraiment_flat_69.wav,0,False,1164,64,F,1,0.071043,35.318973
21101959,36,0,2024-02-26T13:31:54.886Z,male_vraiment_flat_69.wav,0,False,1164,64,F,2,0.142086,9.650212
21101959,36,0,2024-02-26T13:31:54.886Z,male_vraiment_flat_69.wav,0,False,1164,64,F,3,0.213129,140.461686
21101959,36,0,2024-02-26T13:31:54.886Z,male_vraiment_flat_69.wav,0,False,1164,64,F,4,0.284172,-72.489288
21101959,36,0,2024-02-26T13:31:54.886Z,male_vraiment_flat_69.wav,0,False,1164,64,F,5,0.355215,-111.567531
21101959,36,0,2024-02-26T13:31:54.886Z,male_vraiment_flat_69.wav,0,False,1164,64,F,6,0.426259,62.840145
21101959,36,0,2024-02-26T13:31:54.886Z,male_vraiment_flat_136.wav,1,True,1164,64,F,0,0.000000,-47.296851
21101959,36,0,2024-02-26T13:31:54.886Z,male_vraiment_flat_136.wav,1,True,1164,64,F,1,0.071043,-58.430070
21101959,36,0,2024-02-26T13:31:54.886Z,male_vraiment_flat_136.wav,1,True,1164,64,F,2,0.142086,-0.935981
21101959,36,0,2024-02-26T13:31:54.886Z,male_vraiment_flat_136.wav,1,True,1164,64,F,3,0.213129,-128.690729
21101959,36,0,2024-02-26T13:31:54.886Z,male_vraiment_flat_136.wav,1,True,1164,64,F,4,0.284172,49.658863
21101959,36,0,2024-02-26T13:31:54.886Z,male_vraiment_flat_136.wav,1,True,1164,64,F,5,0.355215,66.569477
21101959,36,0,2024-02-26T13:31:54.886Z,male_vraiment_flat_136.wav,1,True,1164,64,F,6,0.426259,92.598952
21101959,37,0,2024-02-26T13:31:54.886Z,male_vraiment_flat_130.wav,0,True,1548,64,F,0,0.000000,-146.057737
21101959,37,0,2024-02-26T13:31:54.886Z,male_vraiment_flat_130.wav,0,True,1548,64,F,1,0.071043,-49.781911
21101959,37,0,2024-02-26T13:31:54.886Z,male_vraiment_flat_130.wav,0,True,1548,64,F,2,0.142086,74.893740
21101959,37,0,2024-02-26T13:31:54.886Z,male_vraiment_flat_130.wav,0,True,1548,64,F,3,0.213129,-14.505163
21101959,37,0,2024-02-26T13:31:54.886Z,male_vraiment_flat_130.wav,0,True,1548,64,F,4,0.284172,16.979815
21101959,37,0,2024-02-26T13:31:54.886Z,male_vraiment_flat_130.wav,0,True,1548,64,F,5,0.355215,-66.512052
21101959,37,0,2024-02-26T13:31:54.886Z,male_vraiment_flat_130.wav,0,True,1548,64,F,6,0.426259,-59.569067
21101959,37,0,2024-02-26T13:31:54.886Z,male_vraiment_flat_104.wav,1,False,1548,64,F,0,0.000000,-70.174686
21101959,37,0,2024-02-26T13:31:54.886Z,male_vraiment_flat_104.wav,1,False,1548,64,F,1,0.071043,-64.753986
21101959,37,0,2024-02-26T13:31:54.886Z,male_vraiment_flat_104.wav,1,False,1548,64,F,2,0.142086,-116.293490
21101959,37,0,2024-02-26T13:31:54.886Z,male_vraiment_flat_104.wav,1,False,1548,64,F,3,0.213129,-63.059369
21101959,37,0,2024-02-26T13:31:54.886Z,male_vraiment_flat_104.wav,1,False,1548,64,F,4,0.284172,102.899256
21101959,37,0,2024-02-26T13:31:54.886Z,male_vraiment_flat_104.wav,1,False,1548,64,F,5,0.355215,-142.936640
21101959,37,0,2024-02-26T13:31:54.886Z,male_vraiment_flat_104.wav,1,False,1548,64,F,6,0.426259,-16.173865
21101959,38,0,2024-02-26T13:31:54.886Z,male_vraiment_flat_137.wav,0,True,910,64,F,0,0.000000,80.130674
21101959,38,0,2024-02-26T13:31:54.886Z,male_vraiment_flat_137.wav,0,True,910,64,F,1,0.071043,138.574149
21101959,38,0,2024-02-26T13:31:54.886Z,male_vraiment_flat_137.wav,0,True,910,64,F,2,0.142086,75.493630
21101959,38,0,2024-02-26T13:31:54.886Z,male_vraiment_flat_137.wav,0,True,910,64,F,3,0.213129,-91.745449
21101959,38,0,2024-02-26T13:31:54.886Z,male_vraiment_flat_137.wav,0,True,910,64,F,4,0.284172,67.674634
21101959,38,0,2024-02-26T13:31:54.886Z,male_vraiment_flat_137.wav,0,True,910,64,F,5,0.355215,136.412365
21101959,38,0,2024-02-26T13:31:54.886Z,male_vraiment_flat_137.wav,0,True,910,64,F,6,0.426259,13.296001
21101959,38,0,2024-02-26T13:31:54.886Z,male_vraiment_flat_40.wav,1,False,910,64,F,0,0.000000,14.191871
21101959,38,0,2024-02-26T13:31:54.886Z,male_vraiment_flat_40.wav,1,False,910,64,F,1,0.071043,-146.480257
21101959,38,0,2024-02-26T13:31:54.886Z,male_vraiment_flat_40.wav,1,False,910,64,F,2,0.142086,53.736102
21101959,38,0,2024-02-26T13:31:54.886Z,male_vraiment_flat_40.wav,1,False,910,64,F,3,0.213129,76.339598
21101959,38,0,2024-02-26T13:31:54.886Z,male_vraiment_flat_40.wav,1,False,910,64,F,4,0.284172,128.682971
21101959,38,0,2024-02-26T13:31:54.886Z,male_vraiment_flat_40.wav,1,False,910,64,F,5,0.355215,-84.474700
21101959,38,0,2024-02-26T13:31:54.886Z,male_vraiment_flat_40.wav,1,False,910,64,F,6,0.426259,41.341932
21101959,39,0,2024-02-26T13:31:54.886Z,male_vraiment_flat_118.wav,0,True,2773,64,F,0,0.000000,126.187147
21101959,39,0,2024-02-26T13:31:54.886Z,male_vraiment_flat_118.wav,0,True,2773,64,F,1,0.071043,44.969184
21101959,39,0,2024-02-26T13:31:54.886Z,male_vraiment_flat_118.wav,0,True,2773,64,F,2,0.142086,-108.017243
21101959,39,0,2024-02-26T13:31:54.886Z,male_vraiment_flat_118.wav,0,True,2773,64,F,3,0.213129,6.480803
21101959,39,0,2024-02-26T13:31:54.886Z,male_vraiment_flat_118.wav,0,True,2773,64,F,4,0.284172,89.811831
21101959,39,0,2024-02-26T13:31:54.886Z,male_vraiment_flat_118.wav,0,True,2773,64,F,5,0.355215,60.034007
21101959,39,0,2024-02-26T13:31:54.886Z,male_vraiment_flat_118.wav,0,True,2773,64,F,6,0.426259,63.317816
21101959,39,0,2024-02-26T13:31:54.886Z,male_vraiment_flat_22.wav,1,False,2773,64,F,0,0.000000,131.811490
21101959,39,0,2024-02-26T13:31:54.886Z,male_vraiment_flat_22.wav,1,False,2773,64,F,1,0.071043,-17.710289
21101959,39,0,2024-02-26T13:31:54.886Z,male_vraiment_flat_22.wav,1,False,2773,64,F,2,0.142086,-106.310722
21101959,39,0,2024-02-26T13:31:54.886Z,male_vraiment_flat_22.wav,1,False,2773,64,F,3,0.213129,-118.997283
21101959,39,0,2024-02-26T13:31:54.886Z,male_vraiment_flat_22.wav,1,False,2773,64,F,4,0.284172,-44.158651
21101959,39,0,2024-02-26T13:31:54.886Z,male_vraiment_flat_22.wav,1,False,2773,64,F,5,0.355215,-65.057904
21101959,39,0,2024-02-26T13:31:54.886Z,male_vraiment_flat_22.wav,1,False,2773,64,F,6,0.426259,142.657358
21101959,40,0,2024-02-26T13:31:54.886Z,male_vraiment_flat_120.wav,0,False,1113,64,F,0,0.000000,20.081065
21101959,40,0,2024-02-26T13:31:54.886Z,male_vraiment_flat_120.wav,0,False,1113,64,F,1,0.071043,100.844988
21101959,40,0,2024-02-26T13:31:54.886Z,male_vraiment_flat_120.wav,0,False,1113,64,F,2,0.142086,-34.199178
21101959,40,0,2024-02-26T13:31:54.886Z,male_vraiment_flat_120.wav,0,False,1113,64,F,3,0.213129,-3.979999
21101959,40,0,2024-02-26T13:31:54.886Z,male_vraiment_flat_120.wav,0,False,1113,64,F,4,0.284172,-132.448085
21101959,40,0,2024-02-26T13:31:54.886Z,male_vraiment_flat_120.wav,0,False,1113,64,F,5,0.355215,-95.704719
21101959,40,0,2024-02-26T13:31:54.886Z,male_vraiment_flat_120.wav,0,False,1113,64,F,6,0.426259,-2.125632
21101959,40,0,2024-02-26T13:31:54.886Z,male_vraiment_flat_175.wav,1,True,1113,64,F,0,0.000000,-48.933192
21101959,40,0,2024-02-26T13:31:54.886Z,male_vraiment_flat_175.wav,1,True,1113,64,F,1,0.071043,23.459372
21101959,40,0,2024-02-26T13:31:54.886Z,male_vraiment_flat_175.wav,1,True,1113,64,F,2,0.142086,-82.944560
21101959,40,0,2024-02-26T13:31:54.886Z,male_vraiment_flat_175.wav,1,True,1113,64,F,3,0.213129,-41.749231
21101959,40,0,2024-02-26T13:31:54.886Z,male_vraiment_flat_175.wav,1,True,1113,64,F,4,0.284172,4.976289
21101959,40,0,2024-02-26T13:31:54.886Z,male_vraiment_flat_175.wav,1,True,1113,64,F,5,0.355215,52.438424
21101959,40,0,2024-02-26T13:31:54.886Z,male_vraiment_flat_175.wav,1,True,1113,64,F,6,0.426259,-117.325248
21101959,41,0,2024-02-26T13:31:54.886Z,male_vraiment_flat_154.wav,0,True,1761,64,F,0,0.000000,-56.341735
21101959,41,0,2024-02-26T13:31:54.886Z,male_vraiment_flat_154.wav,0,True,1761,64,F,1,0.071043,15.133004
21101959,41,0,2024-02-26T13:31:54.886Z,male_vraiment_flat_154.wav,0,True,1761,64,F,2,0.142086,67.588138
21101959,41,0,2024-02-26T13:31:54.886Z,male_vraiment_flat_154.wav,0,True,1761,64,F,3,0.213129,4.827765
21101959,41,0,2024-02-26T13:31:54.886Z,male_vraiment_flat_154.wav,0,True,1761,64,F,4,0.284172,-119.124529
21101959,41,0,2024-02-26T13:31:54.886Z,male_vraiment_flat_154.wav,0,True,1761,64,F,5,0.355215,137.124750
21101959,41,0,2024-02-26T13:31:54.886Z,male_vraiment_flat_154.wav,0,True,1761,64,F,6,0.426259,-61.627299
21101959,41,0,2024-02-26T13:31:54.886Z,male_vraiment_flat_164.wav,1,False,1761,64,F,0,0.000000,-99.029475
21101959,41,0,2024-02-26T13:31:54.886Z,male_vraiment_flat_164.wav,1,False,1761,64,F,1,0.071043,-83.219544
21101959,41,0,2024-02-26T13:31:54.886Z,male_vraiment_flat_164.wav,1,False,1761,64,F,2,0.142086,-76.160804
21101959,41,0,2024-02-26T13:31:54.886Z,male_vraiment_flat_164.wav,1,False,1761,64,F,3,0.213129,-60.412119
21101959,41,0,2024-02-26T13:31:54.886Z,male_vraiment_flat_164.wav,1,False,1761,64,F,4,0.284172,-135.438027
21101959,41,0,2024-02-26T13:31:54.886Z,male_vraiment_flat_164.wav,1,False,1761,64,F,5,0.355215,-30.546522
21101959,41,0,2024-02-26T13:31:54.886Z,male_vraiment_flat_164.wav,1,False,1761,64,F,6,0.426259,-142.367635
21101959,42,0,2024-02-26T13:31:54.886Z,male_vraiment_flat_170.wav,0,True,1721,64,F,0,0.000000,88.489327
21101959,42,0,2024-02-26T13:31:54.886Z,male_vraiment_flat_170.wav,0,True,1721,64,F,1,0.071043,-76.759591
21101959,42,0,2024-02-26T13:31:54.886Z,male_vraiment_flat_170.wav,0,True,1721,64,F,2,0.142086,131.535458
21101959,42,0,2024-02-26T13:31:54.886Z,male_vraiment_flat_170.wav,0,True,1721,64,F,3,0.213129,-66.304272
21101959,42,0,2024-02-26T13:31:54.886Z,male_vraiment_flat_170.wav,0,True,1721,64,F,4,0.284172,82.842237
21101959,42,0,2024-02-26T13:31:54.886Z,male_vraiment_flat_170.wav,0,True,1721,64,F,5,0.355215,39.682087
21101959,42,0,2024-02-26T13:31:54.886Z,male_vraiment_flat_170.wav,0,True,1721,64,F,6,0.426259,-39.313076
21101959,42,0,2024-02-26T13:31:54.886Z,male_vraiment_flat_57.wav,1,False,1721,64,F,0,0.000000,-38.971396
21101959,42,0,2024-02-26T13:31:54.886Z,male_vraiment_flat_57.wav,1,False,1721,64,F,1,0.071043,127.210639
21101959,42,0,2024-02-26T13:31:54.886Z,male_vraiment_flat_57.wav,1,False,1721,64,F,2,0.142086,-100.465383
21101959,42,0,2024-02-26T13:31:54.886Z,male_vraiment_flat_57.wav,1,False,1721,64,F,3,0.213129,-139.526819
21101959,42,0,2024-02-26T13:31:54.886Z,male_vraiment_flat_57.wav,1,False,1721,64,F,4,0.284172,-149.467980
21101959,42,0,2024-02-26T13:31:54.886Z,male_vraiment_flat_57.wav,1,False,1721,64,F,5,0.355215,-50.432071
21101959,42,0,2024-02-26T13:31:54.886Z,male_vraiment_flat_57.wav,1,False,1721,64,F,6,0.426259,15.305878
21101959,43,0,2024-02-26T13:31:54.886Z,male_vraiment_flat_70.wav,0,True,5949,64,F,0,0.000000,-95.640606
21101959,43,0,2024-02-26T13:31:54.886Z,male_vraiment_flat_70.wav,0,True,5949,64,F,1,0.071043,17.584667
21101959,43,0,2024-02-26T13:31:54.886Z,male_vraiment_flat_70.wav,0,True,5949,64,F,2,0.142086,9.439432
21101959,43,0,2024-02-26T13:31:54.886Z,male_vraiment_flat_70.wav,0,True,5949,64,F,3,0.213129,26.204853
21101959,43,0,2024-02-26T13:31:54.886Z,male_vraiment_flat_70.wav,0,True,5949,64,F,4,0.284172,19.735476
21101959,43,0,2024-02-26T13:31:54.886Z,male_vraiment_flat_70.wav,0,True,5949,64,F,5,0.355215,-45.465161
21101959,43,0,2024-02-26T13:31:54.886Z,male_vraiment_flat_70.wav,0,True,5949,64,F,6,0.426259,24.901866
21101959,43,0,2024-02-26T13:31:54.886Z,male_vraiment_flat_71.wav,1,False,5949,64,F,0,0.000000,98.558580
21101959,43,0,2024-02-26T13:31:54.886Z,male_vraiment_flat_71.wav,1,False,5949,64,F,1,0.071043,119.886109
21101959,43,0,2024-02-26T13:31:54.886Z,male_vraiment_flat_71.wav,1,False,5949,64,F,2,0.142086,-7.976954
21101959,43,0,2024-02-26T13:31:54.886Z,male_vraiment_flat_71.wav,1,False,5949,64,F,3,0.213129,7.397873
21101959,43,0,2024-02-26T13:31:54.886Z,male_vraiment_flat_71.wav,1,False,5949,64,F,4,0.284172,8.946833
21101959,43,0,2024-02-26T13:31:54.886Z,male_vraiment_flat_71.wav,1,False,5949,64,F,5,0.355215,-77.850016
21101959,43,0,2024-02-26T13:31:54.886Z,male_vraiment_flat_71.wav,1,False,5949,64,F,6,0.426259,-8.433981
21101959,44,0,2024-02-26T13:31:54.886Z,male_vraiment_flat_195.wav,0,False,1042,64,F,0,0.000000,-54.423844
21101959,44,0,2024-02-26T13:31:54.886Z,male_vraiment_flat_195.wav,0,False,1042,64,F,1,0.071043,81.067183
21101959,44,0,2024-02-26T13:31:54.886Z,male_vraiment_flat_195.wav,0,False,1042,64,F,2,0.142086,-60.396049
21101959,44,0,2024-02-26T13:31:54.886Z,male_vraiment_flat_195.wav,0,False,1042,64,F,3,0.213129,-65.685418
21101959,44,0,2024-02-26T13:31:54.886Z,male_vraiment_flat_195.wav,0,False,1042,64,F,4,0.284172,141.607211
21101959,44,0,2024-02-26T13:31:54.886Z,male_vraiment_flat_195.wav,0,False,1042,64,F,5,0.355215,37.879388
21101959,44,0,2024-02-26T13:31:54.886Z,male_vraiment_flat_195.wav,0,False,1042,64,F,6,0.426259,-52.972183
21101959,44,0,2024-02-26T13:31:54.886Z,male_vraiment_flat_72.wav,1,True,1042,64,F,0,0.000000,-108.464526
21101959,44,0,2024-02-26T13:31:54.886Z,male_vraiment_flat_72.wav,1,True,1042,64,F,1,0.071043,78.835335
21101959,44,0,2024-02-26T13:31:54.886Z,male_vraiment_flat_72.wav,1,True,1042,64,F,2,0.142086,134.553834
21101959,44,0,2024-02-26T13:31:54.886Z,male_vraiment_flat_72.wav,1,True,1042,64,F,3,0.213129,5.396534
21101959,44,0,2024-02-26T13:31:54.886Z,male_vraiment_flat_72.wav,1,True,1042,64,F,4,0.284172,7.798595
21101959,44,0,2024-02-26T13:31:54.886Z,male_vraiment_flat_72.wav,1,True,1042,64,F,5,0.355215,65.510626
21101959,44,0,2024-02-26T13:31:54.886Z,male_vraiment_flat_72.wav,1,True,1042,64,F,6,0.426259,-103.798030
21101959,45,0,2024-02-26T13:31:54.886Z,male_vraiment_flat_145.wav,0,False,793,64,F,0,0.000000,-57.363512
21101959,45,0,2024-02-26T13:31:54.886Z,male_vraiment_flat_145.wav,0,False,793,64,F,1,0.071043,98.212837
21101959,45,0,2024-02-26T13:31:54.886Z,male_vraiment_flat_145.wav,0,False,793,64,F,2,0.142086,141.769894
21101959,45,0,2024-02-26T13:31:54.886Z,male_vraiment_flat_145.wav,0,False,793,64,F,3,0.213129,137.732142
21101959,45,0,2024-02-26T13:31:54.886Z,male_vraiment_flat_145.wav,0,False,793,64,F,4,0.284172,20.834317
21101959,45,0,2024-02-26T13:31:54.886Z,male_vraiment_flat_145.wav,0,False,793,64,F,5,0.355215,-134.972350
21101959,45,0,2024-02-26T13:31:54.886Z,male_vraiment_flat_145.wav,0,False,793,64,F,6,0.426259,-28.162434
21101959,45,0,2024-02-26T13:31:54.886Z,male_vraiment_flat_62.wav,1,True,793,64,F,0,0.000000,-118.782832
21101959,45,0,2024-02-26T13:31:54.886Z,male_vraiment_flat_62.wav,1,True,793,64,F,1,0.071043,-35.995173
21101959,45,0,2024-02-26T13:31:54.886Z,male_vraiment_flat_62.wav,1,True,793,64,F,2,0.142086,21.697311
21101959,45,0,2024-02-26T13:31:54.886Z,male_vraiment_flat_62.wav,1,True,793,64,F,3,0.213129,22.125919
21101959,45,0,2024-02-26T13:31:54.886Z,male_vraiment_flat_62.wav,1,True,793,64,F,4,0.284172,-42.995885
21101959,45,0,2024-02-26T13:31:54.886Z,male_vraiment_flat_62.wav,1,True,793,64,F,5,0.355215,-84.376770
21101959,45,0,2024-02-26T13:31:54.886Z,male_vraiment_flat_62.wav,1,True,793,64,F,6,0.426259,-12.230862
21101959,46,0,2024-02-26T13:31:54.886Z,male_vraiment_flat_33.wav,0,True,1194,64,F,0,0.000000,77.429006
21101959,46,0,2024-02-26T13:31:54.886Z,male_vraiment_flat_33.wav,0,True,1194,64,F,1,0.071043,25.170622
21101959,46,0,2024-02-26T13:31:54.886Z,male_vraiment_flat_33.wav,0,True,1194,64,F,2,0.142086,-65.854422
21101959,46,0,2024-02-26T13:31:54.886Z,male_vraiment_flat_33.wav,0,True,1194,64,F,3,0.213129,106.380035
21101959,46,0,2024-02-26T13:31:54.886Z,male_vraiment_flat_33.wav,0,True,1194,64,F,4,0.284172,126.948212
21101959,46,0,2024-02-26T13:31:54.886Z,male_vraiment_flat_33.wav,0,True,1194,64,F,5,0.355215,88.675782
21101959,46,0,2024-02-26T13:31:54.886Z,male_vraiment_flat_33.wav,0,True,1194,64,F,6,0.426259,-129.822255
21101959,46,0,2024-02-26T13:31:54.886Z,male_vraiment_flat_113.wav,1,False,1194,64,F,0,0.000000,52.176539
21101959,46,0,2024-02-26T13:31:54.886Z,male_vraiment_flat_113.wav,1,False,1194,64,F,1,0.071043,52.904766
21101959,46,0,2024-02-26T13:31:54.886Z,male_vraiment_flat_113.wav,1,False,1194,64,F,2,0.142086,-138.473207
21101959,46,0,2024-02-26T13:31:54.886Z,male_vraiment_flat_113.wav,1,False,1194,64,F,3,0.213129,-65.217652
21101959,46,0,2024-02-26T13:31:54.886Z,male_vraiment_flat_113.wav,1,False,1194,64,F,4,0.284172,3.928053
21101959,46,0,2024-02-26T13:31:54.886Z,male_vraiment_flat_113.wav,1,False,1194,64,F,5,0.355215,69.229623
21101959,46,0,2024-02-26T13:31:54.886Z,male_vraiment_flat_113.wav,1,False,1194,64,F,6,0.426259,-85.157528
21101959,47,0,2024-02-26T13:31:54.886Z,male_vraiment_flat_127.wav,0,True,1239,64,F,0,0.000000,143.598511
21101959,47,0,2024-02-26T13:31:54.886Z,male_vraiment_flat_127.wav,0,True,1239,64,F,1,0.071043,23.645136
21101959,47,0,2024-02-26T13:31:54.886Z,male_vraiment_flat_127.wav,0,True,1239,64,F,2,0.142086,-118.740497
21101959,47,0,2024-02-26T13:31:54.886Z,male_vraiment_flat_127.wav,0,True,1239,64,F,3,0.213129,-109.046436
21101959,47,0,2024-02-26T13:31:54.886Z,male_vraiment_flat_127.wav,0,True,1239,64,F,4,0.284172,66.022521
21101959,47,0,2024-02-26T13:31:54.886Z,male_vraiment_flat_127.wav,0,True,1239,64,F,5,0.355215,-13.059175
21101959,47,0,2024-02-26T13:31:54.886Z,male_vraiment_flat_127.wav,0,True,1239,64,F,6,0.426259,22.700660
21101959,47,0,2024-02-26T13:31:54.886Z,male_vraiment_flat_11.wav,1,False,1239,64,F,0,0.000000,106.632802
21101959,47,0,2024-02-26T13:31:54.886Z,male_vraiment_flat_11.wav,1,False,1239,64,F,1,0.071043,30.235531
21101959,47,0,2024-02-26T13:31:54.886Z,male_vraiment_flat_11.wav,1,False,1239,64,F,2,0.142086,-31.934811
21101959,47,0,2024-02-26T13:31:54.886Z,male_vraiment_flat_11.wav,1,False,1239,64,F,3,0.213129,-70.817469
21101959,47,0,2024-02-26T13:31:54.886Z,male_vraiment_flat_11.wav,1,False,1239,64,F,4,0.284172,-134.947845
21101959,47,0,2024-02-26T13:31:54.886Z,male_vraiment_flat_11.wav,1,False,1239,64,F,5,0.355215,-61.866249
21101959,47,0,2024-02-26T13:31:54.886Z,male_vraiment_flat_11.wav,1,False,1239,64,F,6,0.426259,61.370028
21101959,48,0,2024-02-26T13:31:54.886Z,male_vraiment_flat_42.wav,0,False,1283,64,F,0,0.000000,-6.709342
21101959,48,0,2024-02-26T13:31:54.886Z,male_vraiment_flat_42.wav,0,False,1283,64,F,1,0.071043,35.704202
21101959,48,0,2024-02-26T13:31:54.886Z,male_vraiment_flat_42.wav,0,False,1283,64,F,2,0.142086,-71.421689
21101959,48,0,2024-02-26T13:31:54.886Z,male_vraiment_flat_42.wav,0,False,1283,64,F,3,0.213129,-126.906461
21101959,48,0,2024-02-26T13:31:54.886Z,male_vraiment_flat_42.wav,0,False,1283,64,F,4,0.284172,10.231121
21101959,48,0,2024-02-26T13:31:54.886Z,male_vraiment_flat_42.wav,0,False,1283,64,F,5,0.355215,128.933526
21101959,48,0,2024-02-26T13:31:54.886Z,male_vraiment_flat_42.wav,0,False,1283,64,F,6,0.426259,-76.727395
21101959,48,0,2024-02-26T13:31:54.886Z,male_vraiment_flat_15.wav,1,True,1283,64,F,0,0.000000,-99.515509
21101959,48,0,2024-02-26T13:31:54.886Z,male_vraiment_flat_15.wav,1,True,1283,64,F,1,0.071043,-34.266668
21101959,48,0,2024-02-26T13:31:54.886Z,male_vraiment_flat_15.wav,1,True,1283,64,F,2,0.142086,14.847828
21101959,48,0,2024-02-26T13:31:54.886Z,male_vraiment_flat_15.wav,1,True,1283,64,F,3,0.213129,69.933849
21101959,48,0,2024-02-26T13:31:54.886Z,male_vraiment_flat_15.wav,1,True,1283,64,F,4,0.284172,112.308778
21101959,48,0,2024-02-26T13:31:54.886Z,male_vraiment_flat_15.wav,1,True,1283,64,F,5,0.355215,84.391608
21101959,48,0,2024-02-26T13:31:54.886Z,male_vraiment_flat_15.wav,1,True,1283,64,F,6,0.426259,-74.687150
21101959,49,0,2024-02-26T13:31:54.886Z,male_vraiment_flat_81.wav,0,True,1151,64,F,0,0.000000,35.884214
21101959,49,0,2024-02-26T13:31:54.886Z,male_vraiment_flat_81.wav,0,True,1151,64,F,1,0.071043,19.404831
21101959,49,0,2024-02-26T13:31:54.886Z,male_vraiment_flat_81.wav,0,True,1151,64,F,2,0.142086,121.693264
21101959,49,0,2024-02-26T13:31:54.886Z,male_vraiment_flat_81.wav,0,True,1151,64,F,3,0.213129,29.127429
21101959,49,0,2024-02-26T13:31:54.886Z,male_vraiment_flat_81.wav,0,True,1151,64,F,4,0.284172,71.322417
21101959,49,0,2024-02-26T13:31:54.886Z,male_vraiment_flat_81.wav,0,True,1151,64,F,5,0.355215,138.687922
21101959,49,0,2024-02-26T13:31:54.886Z,male_vraiment_flat_81.wav,0,True,1151,64,F,6,0.426259,110.537915
21101959,49,0,2024-02-26T13:31:54.886Z,male_vraiment_flat_101.wav,1,False,1151,64,F,0,0.000000,69.316576
21101959,49,0,2024-02-26T13:31:54.886Z,male_vraiment_flat_101.wav,1,False,1151,64,F,1,0.071043,-9.395360
21101959,49,0,2024-02-26T13:31:54.886Z,male_vraiment_flat_101.wav,1,False,1151,64,F,2,0.142086,-16.210020
21101959,49,0,2024-02-26T13:31:54.886Z,male_vraiment_flat_101.wav,1,False,1151,64,F,3,0.213129,5.282415
21101959,49,0,2024-02-26T13:31:54.886Z,male_vraiment_flat_101.wav,1,False,1151,64,F,4,0.284172,-92.031474
21101959,49,0,2024-02-26T13:31:54.886Z,male_vraiment_flat_101.wav,1,False,1151,64,F,5,0.355215,-71.382142
21101959,49,0,2024-02-26T13:31:54.886Z,male_vraiment_flat_101.wav,1,False,1151,64,F,6,0.426259,-144.168558
21101959,50,1,2024-02-26T13:31:54.886Z,male_vraiment_flat_98.wav,0,True,1392,64,F,0,0.000000,102.170357
21101959,50,1,2024-02-26T13:31:54.886Z,male_vraiment_flat_98.wav,0,True,1392,64,F,1,0.071043,20.715456
21101959,50,1,2024-02-26T13:31:54.886Z,male_vraiment_flat_98.wav,0,True,1392,64,F,2,0.142086,81.972821
21101959,50,1,2024-02-26T13:31:54.886Z,male_vraiment_flat_98.wav,0,True,1392,64,F,3,0.213129,-125.018297
21101959,50,1,2024-02-26T13:31:54.886Z,male_vraiment_flat_98.wav,0,True,1392,64,F,4,0.284172,103.374214
21101959,50,1,2024-02-26T13:31:54.886Z,male_vraiment_flat_98.wav,0,True,1392,64,F,5,0.355215,-81.704677
21101959,50,1,2024-02-26T13:31:54.886Z,male_vraiment_flat_98.wav,0,True,1392,64,F,6,0.426259,85.109238
21101959,50,1,2024-02-26T13:31:54.886Z,male_vraiment_flat_36.wav,1,False,1392,64,F,0,0.000000,-33.837960
21101959,50,1,2024-02-26T13:31:54.886Z,male_vraiment_flat_36.wav,1,False,1392,64,F,1,0.071043,102.134309
21101959,50,1,2024-02-26T13:31:54.886Z,male_vraiment_flat_36.wav,1,False,1392,64,F,2,0.142086,100.949665
21101959,50,1,2024-02-26T13:31:54.886Z,male_vraiment_flat_36.wav,1,False,1392,64,F,3,0.213129,77.352428
21101959,50,1,2024-02-26T13:31:54.886Z,male_vraiment_flat_36.wav,1,False,1392,64,F,4,0.284172,-1.995321
21101959,50,1,2024-02-26T13:31:54.886Z,male_vraiment_flat_36.wav,1,False,1392,64,F,5,0.355215,-13.382838
21101959,50,1,2024-02-26T13:31:54.886Z,male_vraiment_flat_36.wav,1,False,1392,64,F,6,0.426259,-42.807835
21101959,51,1,2024-02-26T13:31:54.886Z,male_vraiment_flat_108.wav,0,False,2736,64,F,0,0.000000,92.203113
21101959,51,1,2024-02-26T13:31:54.886Z,male_vraiment_flat_108.wav,0,False,2736,64,F,1,0.071043,-74.681876
21101959,51,1,2024-02-26T13:31:54.886Z,male_vraiment_flat_108.wav,0,False,2736,64,F,2,0.142086,-18.773488
21101959,51,1,2024-02-26T13:31:54.886Z,male_vraiment_flat_108.wav,0,False,2736,64,F,3,0.213129,73.054230
21101959,51,1,2024-02-26T13:31:54.886Z,male_vraiment_flat_108.wav,0,False,2736,64,F,4,0.284172,-72.824646
21101959,51,1,2024-02-26T13:31:54.886Z,male_vraiment_flat_108.wav,0,False,2736,64,F,5,0.355215,140.895697
21101959,51,1,2024-02-26T13:31:54.886Z,male_vraiment_flat_108.wav,0,False,2736,64,F,6,0.426259,13.161932
21101959,51,1,2024-02-26T13:31:54.886Z,male_vraiment_flat_66.wav,1,True,2736,64,F,0,0.000000,96.429433
21101959,51,1,2024-02-26T13:31:54.886Z,male_vraiment_flat_66.wav,1,True,2736,64,F,1,0.071043,13.373052
21101959,51,1,2024-02-26T13:31:54.886Z,male_vraiment_flat_66.wav,1,True,2736,64,F,2,0.142086,112.602816
21101959,51,1,2024-02-26T13:31:54.886Z,male_vraiment_flat_66.wav,1,True,2736,64,F,3,0.213129,110.292573
21101959,51,1,2024-02-26T13:31:54.886Z,male_vraiment_flat_66.wav,1,True,2736,64,F,4,0.284172,-89.729138
21101959,51,1,2024-02-26T13:31:54.886Z,male_vraiment_flat_66.wav,1,True,2736,64,F,5,0.355215,-67.456514
21101959,51,1,2024-02-26T13:31:54.886Z,male_vraiment_flat_66.wav,1,True,2736,64,F,6,0.426259,79.997172
21101959,52,1,2024-02-26T13:31:54.886Z,male_vraiment_flat_56.wav,0,True,3225,64,F,0,0.000000,30.953431
21101959,52,1,2024-02-26T13:31:54.886Z,male_vraiment_flat_56.wav,0,True,3225,64,F,1,0.071043,-50.543389
21101959,52,1,2024-02-26T13:31:54.886Z,male_vraiment_flat_56.wav,0,True,3225,64,F,2,0.142086,-40.325616
21101959,52,1,2024-02-26T13:31:54.886Z,male_vraiment_flat_56.wav,0,True,3225,64,F,3,0.213129,130.397773
21101959,52,1,2024-02-26T13:31:54.886Z,male_vraiment_flat_56.wav,0,True,3225,64,F,4,0.284172,-66.278306
21101959,52,1,2024-02-26T13:31:54.886Z,male_vraiment_flat_56.wav,0,True,3225,64,F,5,0.355215,127.583751
21101959,52,1,2024-02-26T13:31:54.886Z,male_vraiment_flat_56.wav,0,True,3225,64,F,6,0.426259,-120.769688
21101959,52,1,2024-02-26T13:31:54.886Z,male_vraiment_flat_2.wav,1,False,3225,64,F,0,0.000000,-26.280713
21101959,52,1,2024-02-26T13:31:54.886Z,male_vraiment_flat_2.wav,1,False,3225,64,F,1,0.071043,83.932106
21101959,52,1,2024-02-26T13:31:54.886Z,male_vraiment_flat_2.wav,1,False,3225,64,F,2,0.142086,59.369452
21101959,52,1,2024-02-26T13:31:54.886Z,male_vraiment_flat_2.wav,1,False,3225,64,F,3,0.213129,8.881156
21101959,52,1,2024-02-26T13:31:54.886Z,male_vraiment_flat_2.wav,1,False,3225,64,F,4,0.284172,3.498385
21101959,52,1,2024-02-26T13:31:54.886Z,male_vraiment_flat_2.wav,1,False,3225,64,F,5,0.355215,-133.430007
21101959,52,1,2024-02-26T13:31:54.886Z,male_vraiment_flat_2.wav,1,False,3225,64,F,6,0.426259,94.606197
21101959,53,1,2024-02-26T13:31:54.886Z,male_vraiment_flat_88.wav,0,False,858,64,F,0,0.000000,-104.432443
21101959,53,1,2024-02-26T13:31:54.886Z,male_vraiment_flat_88.wav,0,False,858,64,F,1,0.071043,71.901933
21101959,53,1,2024-02-26T13:31:54.886Z,male_vraiment_flat_88.wav,0,False,858,64,F,2,0.142086,62.017491
21101959,53,1,2024-02-26T13:31:54.886Z,male_vraiment_flat_88.wav,0,False,858,64,F,3,0.213129,-148.109936
21101959,53,1,2024-02-26T13:31:54.886Z,male_vraiment_flat_88.wav,0,False,858,64,F,4,0.284172,21.087169
21101959,53,1,2024-02-26T13:31:54.886Z,male_vraiment_flat_88.wav,0,False,858,64,F,5,0.355215,98.793360
21101959,53,1,2024-02-26T13:31:54.886Z,male_vraiment_flat_88.wav,0,False,858,64,F,6,0.426259,84.960800
21101959,53,1,2024-02-26T13:31:54.886Z,male_vraiment_flat_123.wav,1,True,858,64,F,0,0.000000,24.338681
21101959,53,1,2024-02-26T13:31:54.886Z,male_vraiment_flat_123.wav,1,True,858,64,F,1,0.071043,-76.255610
21101959,53,1,2024-02-26T13:31:54.886Z,male_vraiment_flat_123.wav,1,True,858,64,F,2,0.142086,16.829571
21101959,53,1,2024-02-26T13:31:54.886Z,male_vraiment_flat_123.wav,1,True,858,64,F,3,0.213129,3.085792
21101959,53,1,2024-02-26T13:31:54.886Z,male_vraiment_flat_123.wav,1,True,858,64,F,4,0.284172,81.658793
21101959,53,1,2024-02-26T13:31:54.886Z,male_vraiment_flat_123.wav,1,True,858,64,F,5,0.355215,73.758354
21101959,53,1,2024-02-26T13:31:54.886Z,male_vraiment_flat_123.wav,1,True,858,64,F,6,0.426259,103.644220
21101959,54,1,2024-02-26T13:31:54.886Z,male_vraiment_flat_109.wav,0,False,644,64,F,0,0.000000,47.448278
21101959,54,1,2024-02-26T13:31:54.886Z,male_vraiment_flat_109.wav,0,False,644,64,F,1,0.071043,97.426800
21101959,54,1,2024-02-26T13:31:54.886Z,male_vraiment_flat_109.wav,0,False,644,64,F,2,0.142086,-100.706472
21101959,54,1,2024-02-26T13:31:54.886Z,male_vraiment_flat_109.wav,0,False,644,64,F,3,0.213129,-21.542212
21101959,54,1,2024-02-26T13:31:54.886Z,male_vraiment_flat_109.wav,0,False,644,64,F,4,0.284172,-35.096541
21101959,54,1,2024-02-26T13:31:54.886Z,male_vraiment_flat_109.wav,0,False,644,64,F,5,0.355215,33.270062
21101959,54,1,2024-02-26T13:31:54.886Z,male_vraiment_flat_109.wav,0,False,644,64,F,6,0.426259,35.804127
21101959,54,1,2024-02-26T13:31:54.886Z,male_vraiment_flat_73.wav,1,True,644,64,F,0,0.000000,116.322519
21101959,54,1,2024-02-26T13:31:54.886Z,male_vraiment_flat_73.wav,1,True,644,64,F,1,0.071043,-36.491811
21101959,54,1,2024-02-26T13:31:54.886Z,male_vraiment_flat_73.wav,1,True,644,64,F,2,0.142086,56.992902
21101959,54,1,2024-02-26T13:31:54.886Z,male_vraiment_flat_73.wav,1,True,644,64,F,3,0.213129,-102.405714
21101959,54,1,2024-02-26T13:31:54.886Z,male_vraiment_flat_73.wav,1,True,644,64,F,4,0.284172,18.027278
21101959,54,1,2024-02-26T13:31:54.886Z,male_vraiment_flat_73.wav,1,True,644,64,F,5,0.355215,92.986932
21101959,54,1,2024-02-26T13:31:54.886Z,male_vraiment_flat_73.wav,1,True,644,64,F,6,0.426259,-12.148577
21101959,55,1,2024-02-26T13:31:54.886Z,male_vraiment_flat_176.wav,0,False,890,64,F,0,0.000000,-0.886832
21101959,55,1,2024-02-26T13:31:54.886Z,male_vraiment_flat_176.wav,0,False,890,64,F,1,0.071043,48.604994
21101959,55,1,2024-02-26T13:31:54.886Z,male_vraiment_flat_176.wav,0,False,890,64,F,2,0.142086,33.352714
21101959,55,1,2024-02-26T13:31:54.886Z,male_vraiment_flat_176.wav,0,False,890,64,F,3,0.213129,-55.356586
21101959,55,1,2024-02-26T13:31:54.886Z,male_vraiment_flat_176.wav,0,False,890,64,F,4,0.284172,-13.903711
21101959,55,1,2024-02-26T13:31:54.886Z,male_vraiment_flat_176.wav,0,False,890,64,F,5,0.355215,54.096530
21101959,55,1,2024-02-26T13:31:54.886Z,male_vraiment_flat_176.wav,0,False,890,64,F,6,0.426259,-77.791606
21101959,55,1,2024-02-26T13:31:54.886Z,male_vraiment_flat_144.wav,1,True,890,64,F,0,0.000000,-68.167624
21101959,55,1,2024-02-26T13:31:54.886Z,male_vraiment_flat_144.wav,1,True,890,64,F,1,0.071043,-79.458647
21101959,55,1,2024-02-26T13:31:54.886Z,male_vraiment_flat_144.wav,1,True,890,64,F,2,0.142086,-79.660425
21101959,55,1,2024-02-26T13:31:54.886Z,male_vraiment_flat_144.wav,1,True,890,64,F,3,0.213129,60.124898
21101959,55,1,2024-02-26T13:31:54.886Z,male_vraiment_flat_144.wav,1,True,890,64,F,4,0.284172,21.367664
21101959,55,1,2024-02-26T13:31:54.886Z,male_vraiment_flat_144.wav,1,True,890,64,F,5,0.355215,44.158096
21101959,55,1,2024-02-26T13:31:54.886Z,male_vraiment_flat_144.wav,1,True,890,64,F,6,0.426259,60.089593
21101959,56,1,2024-02-26T13:31:54.886Z,male_vraiment_flat_91.wav,0,False,1194,64,F,0,0.000000,58.982225
21101959,56,1,2024-02-26T13:31:54.886Z,male_vraiment_flat_91.wav,0,False,1194,64,F,1,0.071043,126.482844
21101959,56,1,2024-02-26T13:31:54.886Z,male_vraiment_flat_91.wav,0,False,1194,64,F,2,0.142086,-120.324305
21101959,56,1,2024-02-26T13:31:54.886Z,male_vraiment_flat_91.wav,0,False,1194,64,F,3,0.213129,54.493295
21101959,56,1,2024-02-26T13:31:54.886Z,male_vraiment_flat_91.wav,0,False,1194,64,F,4,0.284172,74.680181
21101959,56,1,2024-02-26T13:31:54.886Z,male_vraiment_flat_91.wav,0,False,1194,64,F,5,0.355215,99.124880
21101959,56,1,2024-02-26T13:31:54.886Z,male_vraiment_flat_91.wav,0,False,1194,64,F,6,0.426259,-32.505202
21101959,56,1,2024-02-26T13:31:54.886Z,male_vraiment_flat_155.wav,1,True,1194,64,F,0,0.000000,-140.284917
21101959,56,1,2024-02-26T13:31:54.886Z,male_vraiment_flat_155.wav,1,True,1194,64,F,1,0.071043,56.043903
21101959,56,1,2024-02-26T13:31:54.886Z,male_vraiment_flat_155.wav,1,True,1194,64,F,2,0.142086,-2.142699
21101959,56,1,2024-02-26T13:31:54.886Z,male_vraiment_flat_155.wav,1,True,1194,64,F,3,0.213129,-41.999388
21101959,56,1,2024-02-26T13:31:54.886Z,male_vraiment_flat_155.wav,1,True,1194,64,F,4,0.284172,-69.522618
21101959,56,1,2024-02-26T13:31:54.886Z,male_vraiment_flat_155.wav,1,True,1194,64,F,5,0.355215,29.697532
21101959,56,1,2024-02-26T13:31:54.886Z,male_vraiment_flat_155.wav,1,True,1194,64,F,6,0.426259,40.565741
21101959,57,1,2024-02-26T13:31:54.886Z,male_vraiment_flat_148.wav,0,False,1178,64,F,0,0.000000,-84.148504
21101959,57,1,2024-02-26T13:31:54.886Z,male_vraiment_flat_148.wav,0,False,1178,64,F,1,0.071043,116.395609
21101959,57,1,2024-02-26T13:31:54.886Z,male_vraiment_flat_148.wav,0,False,1178,64,F,2,0.142086,22.272455
21101959,57,1,2024-02-26T13:31:54.886Z,male_vraiment_flat_148.wav,0,False,1178,64,F,3,0.213129,-42.662376
21101959,57,1,2024-02-26T13:31:54.886Z,male_vraiment_flat_148.wav,0,False,1178,64,F,4,0.284172,44.974228
21101959,57,1,2024-02-26T13:31:54.886Z,male_vraiment_flat_148.wav,0,False,1178,64,F,5,0.355215,-100.807841
21101959,57,1,2024-02-26T13:31:54.886Z,male_vraiment_flat_148.wav,0,False,1178,64,F,6,0.426259,75.062158
21101959,57,1,2024-02-26T13:31:54.886Z,male_vraiment_flat_114.wav,1,True,1178,64,F,0,0.000000,-107.614700
21101959,57,1,2024-02-26T13:31:54.886Z,male_vraiment_flat_114.wav,1,True,1178,64,F,1,0.071043,-121.606705
21101959,57,1,2024-02-26T13:31:54.886Z,male_vraiment_flat_114.wav,1,True,1178,64,F,2,0.142086,26.820871
21101959,57,1,2024-02-26T13:31:54.886Z,male_vraiment_flat_114.wav,1,True,1178,64,F,3,0.213129,42.957584
21101959,57,1,2024-02-26T13:31:54.886Z,male_vraiment_flat_114.wav,1,True,1178,64,F,4,0.284172,-48.053802
21101959,57,1,2024-02-26T13:31:54.886Z,male_vraiment_flat_114.wav,1,True,1178,64,F,5,0.355215,-10.474627
21101959,57,1,2024-02-26T13:31:54.886Z,male_vraiment_flat_114.wav,1,True,1178,64,F,6,0.426259,-131.069216
21101959,58,1,2024-02-26T13:31:54.886Z,male_vraiment_flat_44.wav,0,False,1310,64,F,0,0.000000,-41.207511
21101959,58,1,2024-02-26T13:31:54.886Z,male_vraiment_flat_44.wav,0,False,1310,64,F,1,0.071043,-36.343841
21101959,58,1,2024-02-26T13:31:54.886Z,male_vraiment_flat_44.wav,0,False,1310,64,F,2,0.142086,111.477084
21101959,58,1,2024-02-26T13:31:54.886Z,male_vraiment_flat_44.wav,0,False,1310,64,F,3,0.213129,5.942406
21101959,58,1,2024-02-26T13:31:54.886Z,male_vraiment_flat_44.wav,0,False,1310,64,F,4,0.284172,108.539673
21101959,58,1,2024-02-26T13:31:54.886Z,male_vraiment_flat_44.wav,0,False,1310,64,F,5,0.355215,-120.732661
21101959,58,1,2024-02-26T13:31:54.886Z,male_vraiment_flat_44.wav,0,False,1310,64,F,6,0.426259,-22.824839
21101959,58,1,2024-02-26T13:31:54.886Z,male_vraiment_flat_64.wav,1,True,1310,64,F,0,0.000000,113.461811
21101959,58,1,2024-02-26T13:31:54.886Z,male_vraiment_flat_64.wav,1,True,1310,64,F,1,0.071043,60.375974
21101959,58,1,2024-02-26T13:31:54.886Z,male_vraiment_flat_64.wav,1,True,1310,64,F,2,0.142086,-103.339599
21101959,58,1,2024-02-26T13:31:54.886Z,male_vraiment_flat_64.wav,1,True,1310,64,F,3,0.213129,103.179307
21101959,58,1,2024-02-26T13:31:54.886Z,male_vraiment_flat_64.wav,1,True,1310,64,F,4,0.284172,81.101135
21101959,58,1,2024-02-26T13:31:54.886Z,male_vraiment_flat_64.wav,1,True,1310,64,F,5,0.355215,-3.861127
21101959,58,1,2024-02-26T13:31:54.886Z,male_vraiment_flat_64.wav,1,True,1310,64,F,6,0.426259,-77.158959
21101959,59,1,2024-02-26T13:31:54.886Z,male_vraiment_flat_97.wav,0,False,1034,64,F,0,0.000000,-82.753908
21101959,59,1,2024-02-26T13:31:54.886Z,male_vraiment_flat_97.wav,0,False,1034,64,F,1,0.071043,-85.130238
21101959,59,1,2024-02-26T13:31:54.886Z,male_vraiment_flat_97.wav,0,False,1034,64,F,2,0.142086,-72.001027
21101959,59,1,2024-02-26T13:31:54.886Z,male_vraiment_flat_97.wav,0,False,1034,64,F,3,0.213129,-75.442204
21101959,59,1,2024-02-26T13:31:54.886Z,male_vraiment_flat_97.wav,0,False,1034,64,F,4,0.284172,147.061792
21101959,59,1,2024-02-26T13:31:54.886Z,male_vraiment_flat_97.wav,0,False,1034,64,F,5,0.355215,126.876511
21101959,59,1,2024-02-26T13:31:54.886Z,male_vraiment_flat_97.wav,0,False,1034,64,F,6,0.426259,96.208887
21101959,59,1,2024-02-26T13:31:54.886Z,male_vraiment_flat_90.wav,1,True,1034,64,F,0,0.000000,39.615876
21101959,59,1,2024-02-26T13:31:54.886Z,male_vraiment_flat_90.wav,1,True,1034,64,F,1,0.071043,-130.464689
21101959,59,1,2024-02-26T13:31:54.886Z,male_vraiment_flat_90.wav,1,True,1034,64,F,2,0.142086,46.838016
21101959,59,1,2024-02-26T13:31:54.886Z,male_vraiment_flat_90.wav,1,True,1034,64,F,3,0.213129,104.861302
21101959,59,1,2024-02-26T13:31:54.886Z,male_vraiment_flat_90.wav,1,True,1034,64,F,4,0.284172,-102.459680
21101959,59,1,2024-02-26T13:31:54.886Z,male_vraiment_flat_90.wav,1,True,1034,64,F,5,0.355215,-91.275011
21101959,59,1,2024-02-26T13:31:54.886Z,male_vraiment_flat_90.wav,1,True,1034,64,F,6,0.426259,45.823426
21101959,60,1,2024-02-26T13:31:54.886Z,male_vraiment_flat_153.wav,0,False,918,64,F,0,0.000000,-62.105340
21101959,60,1,2024-02-26T13:31:54.886Z,male_vraiment_flat_153.wav,0,False,918,64,F,1,0.071043,-52.997588
21101959,60,1,2024-02-26T13:31:54.886Z,male_vraiment_flat_153.wav,0,False,918,64,F,2,0.142086,-76.077591
21101959,60,1,2024-02-26T13:31:54.886Z,male_vraiment_flat_153.wav,0,False,918,64,F,3,0.213129,-18.807121
21101959,60,1,2024-02-26T13:31:54.886Z,male_vraiment_flat_153.wav,0,False,918,64,F,4,0.284172,-115.396331
21101959,60,1,2024-02-26T13:31:54.886Z,male_vraiment_flat_153.wav,0,False,918,64,F,5,0.355215,-128.292537
21101959,60,1,2024-02-26T13:31:54.886Z,male_vraiment_flat_153.wav,0,False,918,64,F,6,0.426259,-78.650880
21101959,60,1,2024-02-26T13:31:54.886Z,male_vraiment_flat_178.wav,1,True,918,64,F,0,0.000000,-112.052653
21101959,60,1,2024-02-26T13:31:54.886Z,male_vraiment_flat_178.wav,1,True,918,64,F,1,0.071043,-21.378049
21101959,60,1,2024-02-26T13:31:54.886Z,male_vraiment_flat_178.wav,1,True,918,64,F,2,0.142086,71.395950
21101959,60,1,2024-02-26T13:31:54.886Z,male_vraiment_flat_178.wav,1,True,918,64,F,3,0.213129,66.817796
21101959,60,1,2024-02-26T13:31:54.886Z,male_vraiment_flat_178.wav,1,True,918,64,F,4,0.284172,25.203350
21101959,60,1,2024-02-26T13:31:54.886Z,male_vraiment_flat_178.wav,1,True,918,64,F,5,0.355215,-37.010641
21101959,60,1,2024-02-26T13:31:54.886Z,male_vraiment_flat_178.wav,1,True,918,64,F,6,0.426259,88.032365
21101959,61,1,2024-02-26T13:31:54.886Z,male_vraiment_flat_9.wav,0,False,1033,64,F,0,0.000000,85.332288
21101959,61,1,2024-02-26T13:31:54.886Z,male_vraiment_flat_9.wav,0,False,1033,64,F,1,0.071043,-113.949520
21101959,61,1,2024-02-26T13:31:54.886Z,male_vraiment_flat_9.wav,0,False,1033,64,F,2,0.142086,22.848070
21101959,61,1,2024-02-26T13:31:54.886Z,male_vraiment_flat_9.wav,0,False,1033,64,F,3,0.213129,-135.528843
21101959,61,1,2024-02-26T13:31:54.886Z,male_vraiment_flat_9.wav,0,False,1033,64,F,4,0.284172,76.460330
21101959,61,1,2024-02-26T13:31:54.886Z,male_vraiment_flat_9.wav,0,False,1033,64,F,5,0.355215,72.455461
21101959,61,1,2024-02-26T13:31:54.886Z,male_vraiment_flat_9.wav,0,False,1033,64,F,6,0.426259,-135.542556
21101959,61,1,2024-02-26T13:31:54.886Z,male_vraiment_flat_191.wav,1,True,1033,64,F,0,0.000000,-3.321474
21101959,61,1,2024-02-26T13:31:54.886Z,male_vraiment_flat_191.wav,1,True,1033,64,F,1,0.071043,110.638678
21101959,61,1,2024-02-26T13:31:54.886Z,male_vraiment_flat_191.wav,1,True,1033,64,F,2,0.142086,142.170563
21101959,61,1,2024-02-26T13:31:54.886Z,male_vraiment_flat_191.wav,1,True,1033,64,F,3,0.213129,-110.761685
21101959,61,1,2024-02-26T13:31:54.886Z,male_vraiment_flat_191.wav,1,True,1033,64,F,4,0.284172,23.931067
21101959,61,1,2024-02-26T13:31:54.886Z,male_vraiment_flat_191.wav,1,True,1033,64,F,5,0.355215,-28.623113
21101959,61,1,2024-02-26T13:31:54.886Z,male_vraiment_flat_191.wav,1,True,1033,64,F,6,0.426259,68.073722
21101959,62,1,2024-02-26T13:31:54.886Z,male_vraiment_flat_3.wav,0,True,4163,64,F,0,0.000000,139.821339
21101959,62,1,2024-02-26T13:31:54.886Z,male_vraiment_flat_3.wav,0,True,4163,64,F,1,0.071043,-90.088416
21101959,62,1,2024-02-26T13:31:54.886Z,male_vraiment_flat_3.wav,0,True,4163,64,F,2,0.142086,-144.376143
21101959,62,1,2024-02-26T13:31:54.886Z,male_vraiment_flat_3.wav,0,True,4163,64,F,3,0.213129,-83.117215
21101959,62,1,2024-02-26T13:31:54.886Z,male_vraiment_flat_3.wav,0,True,4163,64,F,4,0.284172,-15.266959
21101959,62,1,2024-02-26T13:31:54.886Z,male_vraiment_flat_3.wav,0,True,4163,64,F,5,0.355215,-78.645111
21101959,62,1,2024-02-26T13:31:54.886Z,male_vraiment_flat_3.wav,0,True,4163,64,F,6,0.426259,18.566710
21101959,62,1,2024-02-26T13:31:54.886Z,male_vraiment_flat_163.wav,1,False,4163,64,F,0,0.000000,-73.767207
21101959,62,1,2024-02-26T13:31:54.886Z,male_vraiment_flat_163.wav,1,False,4163,64,F,1,0.071043,23.213677
21101959,62,1,2024-02-26T13:31:54.886Z,male_vraiment_flat_163.wav,1,False,4163,64,F,2,0.142086,-14.939662
21101959,62,1,2024-02-26T13:31:54.886Z,male_vraiment_flat_163.wav,1,False,4163,64,F,3,0.213129,-71.864469
21101959,62,1,2024-02-26T13:31:54.886Z,male_vraiment_flat_163.wav,1,False,4163,64,F,4,0.284172,-38.295965
21101959,62,1,2024-02-26T13:31:54.886Z,male_vraiment_flat_163.wav,1,False,4163,64,F,5,0.355215,-52.851418
21101959,62,1,2024-02-26T13:31:54.886Z,male_vraiment_flat_163.wav,1,False,4163,64,F,6,0.426259,-70.943671
21101959,63,1,2024-02-26T13:31:54.886Z,male_vraiment_flat_4.wav,0,True,1332,64,F,0,0.000000,98.226066
21101959,63,1,2024-02-26T13:31:54.886Z,male_vraiment_flat_4.wav,0,True,1332,64,F,1,0.071043,119.322928
21101959,63,1,2024-02-26T13:31:54.886Z,male_vraiment_flat_4.wav,0,True,1332,64,F,2,0.142086,-139.339853
21101959,63,1,2024-02-26T13:31:54.886Z,male_vraiment_flat_4.wav,0,True,1332,64,F,3,0.213129,-46.932317
21101959,63,1,2024-02-26T13:31:54.886Z,male_vraiment_flat_4.wav,0,True,1332,64,F,4,0.284172,-13.288809
21101959,63,1,2024-02-26T13:31:54.886Z,male_vraiment_flat_4.wav,0,True,1332,64,F,5,0.355215,94.861826
21101959,63,1,2024-02-26T13:31:54.886Z,male_vraiment_flat_4.wav,0,True,1332,64,F,6,0.426259,-84.397607
21101959,63,1,2024-02-26T13:31:54.886Z,male_vraiment_flat_0.wav,1,False,1332,64,F,0,0.000000,9.896041
21101959,63,1,2024-02-26T13:31:54.886Z,male_vraiment_flat_0.wav,1,False,1332,64,F,1,0.071043,101.528400
21101959,63,1,2024-02-26T13:31:54.886Z,male_vraiment_flat_0.wav,1,False,1332,64,F,2,0.142086,-68.097850
21101959,63,1,2024-02-26T13:31:54.886Z,male_vraiment_flat_0.wav,1,False,1332,64,F,3,0.213129,-142.658303
21101959,63,1,2024-02-26T13:31:54.886Z,male_vraiment_flat_0.wav,1,False,1332,64,F,4,0.284172,-120.248224
21101959,63,1,2024-02-26T13:31:54.886Z,male_vraiment_flat_0.wav,1,False,1332,64,F,5,0.355215,31.293845
21101959,63,1,2024-02-26T13:31:54.886Z,male_vraiment_flat_0.wav,1,False,1332,64,F,6,0.426259,-137.250528
21101959,64,1,2024-02-26T13:31:54.886Z,male_vraiment_flat_94.wav,0,False,1591,64,F,0,0.000000,-0.652128
21101959,64,1,2024-02-26T13:31:54.886Z,male_vraiment_flat_94.wav,0,False,1591,64,F,1,0.071043,97.860897
21101959,64,1,2024-02-26T13:31:54.886Z,male_vraiment_flat_94.wav,0,False,1591,64,F,2,0.142086,48.932214
21101959,64,1,2024-02-26T13:31:54.886Z,male_vraiment_flat_94.wav,0,False,1591,64,F,3,0.213129,-23.097711
21101959,64,1,2024-02-26T13:31:54.886Z,male_vraiment_flat_94.wav,0,False,1591,64,F,4,0.284172,-47.481676
21101959,64,1,2024-02-26T13:31:54.886Z,male_vraiment_flat_94.wav,0,False,1591,64,F,5,0.355215,-120.450621
21101959,64,1,2024-02-26T13:31:54.886Z,male_vraiment_flat_94.wav,0,False,1591,64,F,6,0.426259,-116.887604
21101959,64,1,2024-02-26T13:31:54.886Z,male_vraiment_flat_74.wav,1,True,1591,64,F,0,0.000000,71.293232
21101959,64,1,2024-02-26T13:31:54.886Z,male_vraiment_flat_74.wav,1,True,1591,64,F,1,0.071043,32.860121
21101959,64,1,2024-02-26T13:31:54.886Z,male_vraiment_flat_74.wav,1,True,1591,64,F,2,0.142086,-85.825735
21101959,64,1,2024-02-26T13:31:54.886Z,male_vraiment_flat_74.wav,1,True,1591,64,F,3,0.213129,70.628085
21101959,64,1,2024-02-26T13:31:54.886Z,male_vraiment_flat_74.wav,1,True,1591,64,F,4,0.284172,126.928038
21101959,64,1,2024-02-26T13:31:54.886Z,male_vraiment_flat_74.wav,1,True,1591,64,F,5,0.355215,120.083362
21101959,64,1,2024-02-26T13:31:54.886Z,male_vraiment_flat_74.wav,1,True,1591,64,F,6,0.426259,92.661740
21101959,65,1,2024-02-26T13:31:54.886Z,male_vraiment_flat_19.wav,0,False,2326,64,F,0,0.000000,-23.596543
21101959,65,1,2024-02-26T13:31:54.886Z,male_vraiment_flat_19.wav,0,False,2326,64,F,1,0.071043,-71.824414
21101959,65,1,2024-02-26T13:31:54.886Z,male_vraiment_flat_19.wav,0,False,2326,64,F,2,0.142086,88.506579
21101959,65,1,2024-02-26T13:31:54.886Z,male_vraiment_flat_19.wav,0,False,2326,64,F,3,0.213129,-79.935804
21101959,65,1,2024-02-26T13:31:54.886Z,male_vraiment_flat_19.wav,0,False,2326,64,F,4,0.284172,97.974212
21101959,65,1,2024-02-26T13:31:54.886Z,male_vraiment_flat_19.wav,0,False,2326,64,F,5,0.355215,-89.439384
21101959,65,1,2024-02-26T13:31:54.886Z,male_vraiment_flat_19.wav,0,False,2326,64,F,6,0.426259,-131.198163
21101959,65,1,2024-02-26T13:31:54.886Z,male_vraiment_flat_183.wav,1,True,2326,64,F,0,0.000000,102.527130
21101959,65,1,2024-02-26T13:31:54.886Z,male_vraiment_flat_183.wav,1,True,2326,64,F,1,0.071043,114.037020
21101959,65,1,2024-02-26T13:31:54.886Z,male_vraiment_flat_183.wav,1,True,2326,64,F,2,0.142086,-45.723055
21101959,65,1,2024-02-26T13:31:54.886Z,male_vraiment_flat_183.wav,1,True,2326,64,F,3,0.213129,-109.210749
21101959,65,1,2024-02-26T13:31:54.886Z,male_vraiment_flat_183.wav,1,True,2326,64,F,4,0.284172,-29.266312
21101959,65,1,2024-02-26T13:31:54.886Z,male_vraiment_flat_183.wav,1,True,2326,64,F,5,0.355215,-77.798514
21101959,65,1,2024-02-26T13:31:54.886Z,male_vraiment_flat_183.wav,1,True,2326,64,F,6,0.426259,-133.179439
21101959,66,1,2024-02-26T13:31:54.886Z,male_vraiment_flat_67.wav,0,False,1659,64,F,0,0.000000,3.293259
21101959,66,1,2024-02-26T13:31:54.886Z,male_vraiment_flat_67.wav,0,False,1659,64,F,1,0.071043,-46.547477
21101959,66,1,2024-02-26T13:31:54.886Z,male_vraiment_flat_67.wav,0,False,1659,64,F,2,0.142086,54.624069
21101959,66,1,2024-02-26T13:31:54.886Z,male_vraiment_flat_67.wav,0,False,1659,64,F,3,0.213129,-46.025939
21101959,66,1,2024-02-26T13:31:54.886Z,male_vraiment_flat_67.wav,0,False,1659,64,F,4,0.284172,70.704507
21101959,66,1,2024-02-26T13:31:54.886Z,male_vraiment_flat_67.wav,0,False,1659,64,F,5,0.355215,-47.199237
21101959,66,1,2024-02-26T13:31:54.886Z,male_vraiment_flat_67.wav,0,False,1659,64,F,6,0.426259,147.575842
21101959,66,1,2024-02-26T13:31:54.886Z,male_vraiment_flat_189.wav,1,True,1659,64,F,0,0.000000,53.448621
21101959,66,1,2024-02-26T13:31:54.886Z,male_vraiment_flat_189.wav,1,True,1659,64,F,1,0.071043,82.292801
21101959,66,1,2024-02-26T13:31:54.886Z,male_vraiment_flat_189.wav,1,True,1659,64,F,2,0.142086,-89.509706
21101959,66,1,2024-02-26T13:31:54.886Z,male_vraiment_flat_189.wav,1,True,1659,64,F,3,0.213129,61.203077
21101959,66,1,2024-02-26T13:31:54.886Z,male_vraiment_flat_189.wav,1,True,1659,64,F,4,0.284172,-64.080431
21101959,66,1,2024-02-26T13:31:54.886Z,male_vraiment_flat_189.wav,1,True,1659,64,F,5,0.355215,71.408242
21101959,66,1,2024-02-26T13:31:54.886Z,male_vraiment_flat_189.wav,1,True,1659,64,F,6,0.426259,-96.299976
21101959,67,1,2024-02-26T13:31:54.886Z,male_vraiment_flat_112.wav,0,True,1055,64,F,0,0.000000,40.318333
21101959,67,1,2024-02-26T13:31:54.886Z,male_vraiment_flat_112.wav,0,True,1055,64,F,1,0.071043,28.779991
21101959,67,1,2024-02-26T13:31:54.886Z,male_vraiment_flat_112.wav,0,True,1055,64,F,2,0.142086,-86.990654
21101959,67,1,2024-02-26T13:31:54.886Z,male_vraiment_flat_112.wav,0,True,1055,64,F,3,0.213129,-136.064498
21101959,67,1,2024-02-26T13:31:54.886Z,male_vraiment_flat_112.wav,0,True,1055,64,F,4,0.284172,89.286191
21101959,67,1,2024-02-26T13:31:54.886Z,male_vraiment_flat_112.wav,0,True,1055,64,F,5,0.355215,99.616935
21101959,67,1,2024-02-26T13:31:54.886Z,male_vraiment_flat_112.wav,0,True,1055,64,F,6,0.426259,-61.253639
21101959,67,1,2024-02-26T13:31:54.886Z,male_vraiment_flat_49.wav,1,False,1055,64,F,0,0.000000,-83.600042
21101959,67,1,2024-02-26T13:31:54.886Z,male_vraiment_flat_49.wav,1,False,1055,64,F,1,0.071043,-14.728623
21101959,67,1,2024-02-26T13:31:54.886Z,male_vraiment_flat_49.wav,1,False,1055,64,F,2,0.142086,25.142138
21101959,67,1,2024-02-26T13:31:54.886Z,male_vraiment_flat_49.wav,1,False,1055,64,F,3,0.213129,135.875151
21101959,67,1,2024-02-26T13:31:54.886Z,male_vraiment_flat_49.wav,1,False,1055,64,F,4,0.284172,60.117986
21101959,67,1,2024-02-26T13:31:54.886Z,male_vraiment_flat_49.wav,1,False,1055,64,F,5,0.355215,-135.086661
21101959,67,1,2024-02-26T13:31:54.886Z,male_vraiment_flat_49.wav,1,False,1055,64,F,6,0.426259,-32.809615
21101959,68,1,2024-02-26T13:31:54.886Z,male_vraiment_flat_102.wav,0,False,2262,64,F,0,0.000000,-40.599677
21101959,68,1,2024-02-26T13:31:54.886Z,male_vraiment_flat_102.wav,0,False,2262,64,F,1,0.071043,73.648850
21101959,68,1,2024-02-26T13:31:54.886Z,male_vraiment_flat_102.wav,0,False,2262,64,F,2,0.142086,15.923898
21101959,68,1,2024-02-26T13:31:54.886Z,male_vraiment_flat_102.wav,0,False,2262,64,F,3,0.213129,-109.098836
21101959,68,1,2024-02-26T13:31:54.886Z,male_vraiment_flat_102.wav,0,False,2262,64,F,4,0.284172,134.536605
