subj,trial,block,date,stim,stim_order,response,rt,age,sex,param_index,segment_time,pitch
271154,0,0,2024-03-13T15:41:29.846Z,male_vraiment_flat_133.wav,0,False,5596,69,F,0,0.000000,-33.116176
271154,0,0,2024-03-13T15:41:29.846Z,male_vraiment_flat_133.wav,0,False,5596,69,F,1,0.071043,-79.722902
271154,0,0,2024-03-13T15:41:29.846Z,male_vraiment_flat_133.wav,0,False,5596,69,F,2,0.142086,-0.174059
271154,0,0,2024-03-13T15:41:29.846Z,male_vraiment_flat_133.wav,0,False,5596,69,F,3,0.213129,82.274364
271154,0,0,2024-03-13T15:41:29.846Z,male_vraiment_flat_133.wav,0,False,5596,69,F,4,0.284172,-109.731995
271154,0,0,2024-03-13T15:41:29.846Z,male_vraiment_flat_133.wav,0,False,5596,69,F,5,0.355215,-72.489270
271154,0,0,2024-03-13T15:41:29.846Z,male_vraiment_flat_133.wav,0,False,5596,69,F,6,0.426259,11.511705
271154,0,0,2024-03-13T15:41:29.846Z,male_vraiment_flat_32.wav,1,True,5596,69,F,0,0.000000,-83.957947
271154,0,0,2024-03-13T15:41:29.846Z,male_vraiment_flat_32.wav,1,True,5596,69,F,1,0.071043,68.475222
271154,0,0,2024-03-13T15:41:29.846Z,male_vraiment_flat_32.wav,1,True,5596,69,F,2,0.142086,-59.489465
271154,0,0,2024-03-13T15:41:29.846Z,male_vraiment_flat_32.wav,1,True,5596,69,F,3,0.213129,64.566697
271154,0,0,2024-03-13T15:41:29.846Z,male_vraiment_flat_32.wav,1,True,5596,69,F,4,0.284172,-27.267557
271154,0,0,2024-03-13T15:41:29.846Z,male_vraiment_flat_32.wav,1,True,5596,69,F,5,0.355215,94.356275
271154,0,0,2024-03-13T15:41:29.846Z,male_vraiment_flat_32.wav,1,True,5596,69,F,6,0.426259,27.666308
271154,1,0,2024-03-13T15:41:29.846Z,male_vraiment_flat_12.wav,0,False,3163,69,F,0,0.000000,-11.936919
271154,1,0,2024-03-13T15:41:29.846Z,male_vraiment_flat_12.wav,0,False,3163,69,F,1,0.071043,-51.249998
271154,1,0,2024-03-13T15:41:29.846Z,male_vraiment_flat_12.wav,0,False,3163,69,F,2,0.142086,42.322915
271154,1,0,2024-03-13T15:41:29.846Z,male_vraiment_flat_12.wav,0,False,3163,69,F,3,0.213129,-19.839410
271154,1,0,2024-03-13T15:41:29.846Z,male_vraiment_flat_12.wav,0,False,3163,69,F,4,0.284172,46.127041
271154,1,0,2024-03-13T15:41:29.846Z,male_vraiment_flat_12.wav,0,False,3163,69,F,5,0.355215,34.596861
271154,1,0,2024-03-13T15:41:29.846Z,male_vraiment_flat_12.wav,0,False,3163,69,F,6,0.426259,143.594573
271154,1,0,2024-03-13T15:41:29.846Z,male_vraiment_flat_159.wav,1,True,3163,69,F,0,0.000000,-84.088119
271154,1,0,2024-03-13T15:41:29.846Z,male_vraiment_flat_159.wav,1,True,3163,69,F,1,0.071043,11.677970
271154,1,0,2024-03-13T15:41:29.846Z,male_vraiment_flat_159.wav,1,True,3163,69,F,2,0.142086,70.948823
271154,1,0,2024-03-13T15:41:29.846Z,male_vraiment_flat_159.wav,1,True,3163,69,F,3,0.213129,101.030552
271154,1,0,2024-03-13T15:41:29.846Z,male_vraiment_flat_159.wav,1,True,3163,69,F,4,0.284172,35.233409
271154,1,0,2024-03-13T15:41:29.846Z,male_vraiment_flat_159.wav,1,True,3163,69,F,5,0.355215,70.014692
271154,1,0,2024-03-13T15:41:29.846Z,male_vraiment_flat_159.wav,1,True,3163,69,F,6,0.426259,-21.284009
271154,2,0,2024-03-13T15:41:29.846Z,male_vraiment_flat_166.wav,0,False,2272,69,F,0,0.000000,40.484109
271154,2,0,2024-03-13T15:41:29.846Z,male_vraiment_flat_166.wav,0,False,2272,69,F,1,0.071043,-10.250913
271154,2,0,2024-03-13T15:41:29.846Z,male_vraiment_flat_166.wav,0,False,2272,69,F,2,0.142086,-109.726305
271154,2,0,2024-03-13T15:41:29.846Z,male_vraiment_flat_166.wav,0,False,2272,69,F,3,0.213129,-32.205058
271154,2,0,2024-03-13T15:41:29.846Z,male_vraiment_flat_166.wav,0,False,2272,69,F,4,0.284172,141.461363
271154,2,0,2024-03-13T15:41:29.846Z,male_vraiment_flat_166.wav,0,False,2272,69,F,5,0.355215,65.199031
271154,2,0,2024-03-13T15:41:29.846Z,male_vraiment_flat_166.wav,0,False,2272,69,F,6,0.426259,-54.014549
271154,2,0,2024-03-13T15:41:29.846Z,male_vraiment_flat_195.wav,1,True,2272,69,F,0,0.000000,-54.423844
271154,2,0,2024-03-13T15:41:29.846Z,male_vraiment_flat_195.wav,1,True,2272,69,F,1,0.071043,81.067183
271154,2,0,2024-03-13T15:41:29.846Z,male_vraiment_flat_195.wav,1,True,2272,69,F,2,0.142086,-60.396049
271154,2,0,2024-03-13T15:41:29.846Z,male_vraiment_flat_195.wav,1,True,2272,69,F,3,0.213129,-65.685418
271154,2,0,2024-03-13T15:41:29.846Z,male_vraiment_flat_195.wav,1,True,2272,69,F,4,0.284172,141.607211
271154,2,0,2024-03-13T15:41:29.846Z,male_vraiment_flat_195.wav,1,True,2272,69,F,5,0.355215,37.879388
271154,2,0,2024-03-13T15:41:29.846Z,male_vraiment_flat_195.wav,1,True,2272,69,F,6,0.426259,-52.972183
271154,3,0,2024-03-13T15:41:29.846Z,male_vraiment_flat_156.wav,0,False,3019,69,F,0,0.000000,62.995907
271154,3,0,2024-03-13T15:41:29.846Z,male_vraiment_flat_156.wav,0,False,3019,69,F,1,0.071043,-119.801161
271154,3,0,2024-03-13T15:41:29.846Z,male_vraiment_flat_156.wav,0,False,3019,69,F,2,0.142086,-125.261471
271154,3,0,2024-03-13T15:41:29.846Z,male_vraiment_flat_156.wav,0,False,3019,69,F,3,0.213129,110.918732
271154,3,0,2024-03-13T15:41:29.846Z,male_vraiment_flat_156.wav,0,False,3019,69,F,4,0.284172,-27.635219
271154,3,0,2024-03-13T15:41:29.846Z,male_vraiment_flat_156.wav,0,False,3019,69,F,5,0.355215,57.926930
271154,3,0,2024-03-13T15:41:29.846Z,male_vraiment_flat_156.wav,0,False,3019,69,F,6,0.426259,-85.703842
271154,3,0,2024-03-13T15:41:29.846Z,male_vraiment_flat_38.wav,1,True,3019,69,F,0,0.000000,144.136513
271154,3,0,2024-03-13T15:41:29.846Z,male_vraiment_flat_38.wav,1,True,3019,69,F,1,0.071043,-64.103106
271154,3,0,2024-03-13T15:41:29.846Z,male_vraiment_flat_38.wav,1,True,3019,69,F,2,0.142086,-98.673112
271154,3,0,2024-03-13T15:41:29.846Z,male_vraiment_flat_38.wav,1,True,3019,69,F,3,0.213129,-23.920097
271154,3,0,2024-03-13T15:41:29.846Z,male_vraiment_flat_38.wav,1,True,3019,69,F,4,0.284172,-49.884553
271154,3,0,2024-03-13T15:41:29.846Z,male_vraiment_flat_38.wav,1,True,3019,69,F,5,0.355215,-104.927811
271154,3,0,2024-03-13T15:41:29.846Z,male_vraiment_flat_38.wav,1,True,3019,69,F,6,0.426259,133.075001
271154,4,0,2024-03-13T15:41:29.846Z,male_vraiment_flat_0.wav,0,False,2615,69,F,0,0.000000,9.896041
271154,4,0,2024-03-13T15:41:29.846Z,male_vraiment_flat_0.wav,0,False,2615,69,F,1,0.071043,101.528400
271154,4,0,2024-03-13T15:41:29.846Z,male_vraiment_flat_0.wav,0,False,2615,69,F,2,0.142086,-68.097850
271154,4,0,2024-03-13T15:41:29.846Z,male_vraiment_flat_0.wav,0,False,2615,69,F,3,0.213129,-142.658303
271154,4,0,2024-03-13T15:41:29.846Z,male_vraiment_flat_0.wav,0,False,2615,69,F,4,0.284172,-120.248224
271154,4,0,2024-03-13T15:41:29.846Z,male_vraiment_flat_0.wav,0,False,2615,69,F,5,0.355215,31.293845
271154,4,0,2024-03-13T15:41:29.846Z,male_vraiment_flat_0.wav,0,False,2615,69,F,6,0.426259,-137.250528
271154,4,0,2024-03-13T15:41:29.846Z,male_vraiment_flat_187.wav,1,True,2615,69,F,0,0.000000,-30.403680
271154,4,0,2024-03-13T15:41:29.846Z,male_vraiment_flat_187.wav,1,True,2615,69,F,1,0.071043,-60.531290
271154,4,0,2024-03-13T15:41:29.846Z,male_vraiment_flat_187.wav,1,True,2615,69,F,2,0.142086,-84.335778
271154,4,0,2024-03-13T15:41:29.846Z,male_vraiment_flat_187.wav,1,True,2615,69,F,3,0.213129,-15.670285
271154,4,0,2024-03-13T15:41:29.846Z,male_vraiment_flat_187.wav,1,True,2615,69,F,4,0.284172,-56.852158
271154,4,0,2024-03-13T15:41:29.846Z,male_vraiment_flat_187.wav,1,True,2615,69,F,5,0.355215,50.399162
271154,4,0,2024-03-13T15:41:29.846Z,male_vraiment_flat_187.wav,1,True,2615,69,F,6,0.426259,83.384475
271154,5,0,2024-03-13T15:41:29.846Z,male_vraiment_flat_119.wav,0,False,1825,69,F,0,0.000000,-44.932226
271154,5,0,2024-03-13T15:41:29.846Z,male_vraiment_flat_119.wav,0,False,1825,69,F,1,0.071043,12.460519
271154,5,0,2024-03-13T15:41:29.846Z,male_vraiment_flat_119.wav,0,False,1825,69,F,2,0.142086,58.855712
271154,5,0,2024-03-13T15:41:29.846Z,male_vraiment_flat_119.wav,0,False,1825,69,F,3,0.213129,26.967779
271154,5,0,2024-03-13T15:41:29.846Z,male_vraiment_flat_119.wav,0,False,1825,69,F,4,0.284172,139.969902
271154,5,0,2024-03-13T15:41:29.846Z,male_vraiment_flat_119.wav,0,False,1825,69,F,5,0.355215,49.325586
271154,5,0,2024-03-13T15:41:29.846Z,male_vraiment_flat_119.wav,0,False,1825,69,F,6,0.426259,89.552624
271154,5,0,2024-03-13T15:41:29.846Z,male_vraiment_flat_35.wav,1,True,1825,69,F,0,0.000000,-80.907759
271154,5,0,2024-03-13T15:41:29.846Z,male_vraiment_flat_35.wav,1,True,1825,69,F,1,0.071043,-44.446048
271154,5,0,2024-03-13T15:41:29.846Z,male_vraiment_flat_35.wav,1,True,1825,69,F,2,0.142086,-51.579277
271154,5,0,2024-03-13T15:41:29.846Z,male_vraiment_flat_35.wav,1,True,1825,69,F,3,0.213129,-66.764099
271154,5,0,2024-03-13T15:41:29.846Z,male_vraiment_flat_35.wav,1,True,1825,69,F,4,0.284172,-35.478686
271154,5,0,2024-03-13T15:41:29.846Z,male_vraiment_flat_35.wav,1,True,1825,69,F,5,0.355215,-86.823570
271154,5,0,2024-03-13T15:41:29.846Z,male_vraiment_flat_35.wav,1,True,1825,69,F,6,0.426259,26.550026
271154,6,0,2024-03-13T15:41:29.846Z,male_vraiment_flat_175.wav,0,False,1067,69,F,0,0.000000,-48.933192
271154,6,0,2024-03-13T15:41:29.846Z,male_vraiment_flat_175.wav,0,False,1067,69,F,1,0.071043,23.459372
271154,6,0,2024-03-13T15:41:29.846Z,male_vraiment_flat_175.wav,0,False,1067,69,F,2,0.142086,-82.944560
271154,6,0,2024-03-13T15:41:29.846Z,male_vraiment_flat_175.wav,0,False,1067,69,F,3,0.213129,-41.749231
271154,6,0,2024-03-13T15:41:29.846Z,male_vraiment_flat_175.wav,0,False,1067,69,F,4,0.284172,4.976289
271154,6,0,2024-03-13T15:41:29.846Z,male_vraiment_flat_175.wav,0,False,1067,69,F,5,0.355215,52.438424
271154,6,0,2024-03-13T15:41:29.846Z,male_vraiment_flat_175.wav,0,False,1067,69,F,6,0.426259,-117.325248
271154,6,0,2024-03-13T15:41:29.846Z,male_vraiment_flat_90.wav,1,True,1067,69,F,0,0.000000,39.615876
271154,6,0,2024-03-13T15:41:29.846Z,male_vraiment_flat_90.wav,1,True,1067,69,F,1,0.071043,-130.464689
271154,6,0,2024-03-13T15:41:29.846Z,male_vraiment_flat_90.wav,1,True,1067,69,F,2,0.142086,46.838016
271154,6,0,2024-03-13T15:41:29.846Z,male_vraiment_flat_90.wav,1,True,1067,69,F,3,0.213129,104.861302
271154,6,0,2024-03-13T15:41:29.846Z,male_vraiment_flat_90.wav,1,True,1067,69,F,4,0.284172,-102.459680
271154,6,0,2024-03-13T15:41:29.846Z,male_vraiment_flat_90.wav,1,True,1067,69,F,5,0.355215,-91.275011
271154,6,0,2024-03-13T15:41:29.846Z,male_vraiment_flat_90.wav,1,True,1067,69,F,6,0.426259,45.823426
271154,7,0,2024-03-13T15:41:29.846Z,male_vraiment_flat_81.wav,0,False,670,69,F,0,0.000000,35.884214
271154,7,0,2024-03-13T15:41:29.846Z,male_vraiment_flat_81.wav,0,False,670,69,F,1,0.071043,19.404831
271154,7,0,2024-03-13T15:41:29.846Z,male_vraiment_flat_81.wav,0,False,670,69,F,2,0.142086,121.693264
271154,7,0,2024-03-13T15:41:29.846Z,male_vraiment_flat_81.wav,0,False,670,69,F,3,0.213129,29.127429
271154,7,0,2024-03-13T15:41:29.846Z,male_vraiment_flat_81.wav,0,False,670,69,F,4,0.284172,71.322417
271154,7,0,2024-03-13T15:41:29.846Z,male_vraiment_flat_81.wav,0,False,670,69,F,5,0.355215,138.687922
271154,7,0,2024-03-13T15:41:29.846Z,male_vraiment_flat_81.wav,0,False,670,69,F,6,0.426259,110.537915
271154,7,0,2024-03-13T15:41:29.846Z,male_vraiment_flat_124.wav,1,True,670,69,F,0,0.000000,-7.963711
271154,7,0,2024-03-13T15:41:29.846Z,male_vraiment_flat_124.wav,1,True,670,69,F,1,0.071043,-56.081883
271154,7,0,2024-03-13T15:41:29.846Z,male_vraiment_flat_124.wav,1,True,670,69,F,2,0.142086,-78.115299
271154,7,0,2024-03-13T15:41:29.846Z,male_vraiment_flat_124.wav,1,True,670,69,F,3,0.213129,-24.811935
271154,7,0,2024-03-13T15:41:29.846Z,male_vraiment_flat_124.wav,1,True,670,69,F,4,0.284172,-9.003272
271154,7,0,2024-03-13T15:41:29.846Z,male_vraiment_flat_124.wav,1,True,670,69,F,5,0.355215,13.712214
271154,7,0,2024-03-13T15:41:29.846Z,male_vraiment_flat_124.wav,1,True,670,69,F,6,0.426259,140.048390
271154,8,0,2024-03-13T15:41:29.846Z,male_vraiment_flat_61.wav,0,False,934,69,F,0,0.000000,-131.156457
271154,8,0,2024-03-13T15:41:29.846Z,male_vraiment_flat_61.wav,0,False,934,69,F,1,0.071043,-97.865916
271154,8,0,2024-03-13T15:41:29.846Z,male_vraiment_flat_61.wav,0,False,934,69,F,2,0.142086,61.528867
271154,8,0,2024-03-13T15:41:29.846Z,male_vraiment_flat_61.wav,0,False,934,69,F,3,0.213129,-10.532302
271154,8,0,2024-03-13T15:41:29.846Z,male_vraiment_flat_61.wav,0,False,934,69,F,4,0.284172,-59.471070
271154,8,0,2024-03-13T15:41:29.846Z,male_vraiment_flat_61.wav,0,False,934,69,F,5,0.355215,77.665776
271154,8,0,2024-03-13T15:41:29.846Z,male_vraiment_flat_61.wav,0,False,934,69,F,6,0.426259,-95.375701
271154,8,0,2024-03-13T15:41:29.846Z,male_vraiment_flat_76.wav,1,True,934,69,F,0,0.000000,-119.681125
271154,8,0,2024-03-13T15:41:29.846Z,male_vraiment_flat_76.wav,1,True,934,69,F,1,0.071043,66.441865
271154,8,0,2024-03-13T15:41:29.846Z,male_vraiment_flat_76.wav,1,True,934,69,F,2,0.142086,-95.265303
271154,8,0,2024-03-13T15:41:29.846Z,male_vraiment_flat_76.wav,1,True,934,69,F,3,0.213129,7.780656
271154,8,0,2024-03-13T15:41:29.846Z,male_vraiment_flat_76.wav,1,True,934,69,F,4,0.284172,-90.368576
271154,8,0,2024-03-13T15:41:29.846Z,male_vraiment_flat_76.wav,1,True,934,69,F,5,0.355215,-64.528472
271154,8,0,2024-03-13T15:41:29.846Z,male_vraiment_flat_76.wav,1,True,934,69,F,6,0.426259,-137.293439
271154,9,0,2024-03-13T15:41:29.846Z,male_vraiment_flat_11.wav,0,False,1043,69,F,0,0.000000,106.632802
271154,9,0,2024-03-13T15:41:29.846Z,male_vraiment_flat_11.wav,0,False,1043,69,F,1,0.071043,30.235531
271154,9,0,2024-03-13T15:41:29.846Z,male_vraiment_flat_11.wav,0,False,1043,69,F,2,0.142086,-31.934811
271154,9,0,2024-03-13T15:41:29.846Z,male_vraiment_flat_11.wav,0,False,1043,69,F,3,0.213129,-70.817469
271154,9,0,2024-03-13T15:41:29.846Z,male_vraiment_flat_11.wav,0,False,1043,69,F,4,0.284172,-134.947845
271154,9,0,2024-03-13T15:41:29.846Z,male_vraiment_flat_11.wav,0,False,1043,69,F,5,0.355215,-61.866249
271154,9,0,2024-03-13T15:41:29.846Z,male_vraiment_flat_11.wav,0,False,1043,69,F,6,0.426259,61.370028
271154,9,0,2024-03-13T15:41:29.846Z,male_vraiment_flat_20.wav,1,True,1043,69,F,0,0.000000,-58.370476
271154,9,0,2024-03-13T15:41:29.846Z,male_vraiment_flat_20.wav,1,True,1043,69,F,1,0.071043,112.073529
271154,9,0,2024-03-13T15:41:29.846Z,male_vraiment_flat_20.wav,1,True,1043,69,F,2,0.142086,29.472628
271154,9,0,2024-03-13T15:41:29.846Z,male_vraiment_flat_20.wav,1,True,1043,69,F,3,0.213129,-22.374222
271154,9,0,2024-03-13T15:41:29.846Z,male_vraiment_flat_20.wav,1,True,1043,69,F,4,0.284172,-146.515998
271154,9,0,2024-03-13T15:41:29.846Z,male_vraiment_flat_20.wav,1,True,1043,69,F,5,0.355215,47.280720
271154,9,0,2024-03-13T15:41:29.846Z,male_vraiment_flat_20.wav,1,True,1043,69,F,6,0.426259,140.553925
271154,10,0,2024-03-13T15:41:29.846Z,male_vraiment_flat_42.wav,0,False,1024,69,F,0,0.000000,-6.709342
271154,10,0,2024-03-13T15:41:29.846Z,male_vraiment_flat_42.wav,0,False,1024,69,F,1,0.071043,35.704202
271154,10,0,2024-03-13T15:41:29.846Z,male_vraiment_flat_42.wav,0,False,1024,69,F,2,0.142086,-71.421689
271154,10,0,2024-03-13T15:41:29.846Z,male_vraiment_flat_42.wav,0,False,1024,69,F,3,0.213129,-126.906461
271154,10,0,2024-03-13T15:41:29.846Z,male_vraiment_flat_42.wav,0,False,1024,69,F,4,0.284172,10.231121
271154,10,0,2024-03-13T15:41:29.846Z,male_vraiment_flat_42.wav,0,False,1024,69,F,5,0.355215,128.933526
271154,10,0,2024-03-13T15:41:29.846Z,male_vraiment_flat_42.wav,0,False,1024,69,F,6,0.426259,-76.727395
271154,10,0,2024-03-13T15:41:29.846Z,male_vraiment_flat_176.wav,1,True,1024,69,F,0,0.000000,-0.886832
271154,10,0,2024-03-13T15:41:29.846Z,male_vraiment_flat_176.wav,1,True,1024,69,F,1,0.071043,48.604994
271154,10,0,2024-03-13T15:41:29.846Z,male_vraiment_flat_176.wav,1,True,1024,69,F,2,0.142086,33.352714
271154,10,0,2024-03-13T15:41:29.846Z,male_vraiment_flat_176.wav,1,True,1024,69,F,3,0.213129,-55.356586
271154,10,0,2024-03-13T15:41:29.846Z,male_vraiment_flat_176.wav,1,True,1024,69,F,4,0.284172,-13.903711
271154,10,0,2024-03-13T15:41:29.846Z,male_vraiment_flat_176.wav,1,True,1024,69,F,5,0.355215,54.096530
271154,10,0,2024-03-13T15:41:29.846Z,male_vraiment_flat_176.wav,1,True,1024,69,F,6,0.426259,-77.791606
271154,11,0,2024-03-13T15:41:29.846Z,male_vraiment_flat_95.wav,0,False,982,69,F,0,0.000000,144.813706
271154,11,0,2024-03-13T15:41:29.846Z,male_vraiment_flat_95.wav,0,False,982,69,F,1,0.071043,36.420023
271154,11,0,2024-03-13T15:41:29.846Z,male_vraiment_flat_95.wav,0,False,982,69,F,2,0.142086,-15.581887
271154,11,0,2024-03-13T15:41:29.846Z,male_vraiment_flat_95.wav,0,False,982,69,F,3,0.213129,-108.080315
271154,11,0,2024-03-13T15:41:29.846Z,male_vraiment_flat_95.wav,0,False,982,69,F,4,0.284172,44.827040
271154,11,0,2024-03-13T15:41:29.846Z,male_vraiment_flat_95.wav,0,False,982,69,F,5,0.355215,-140.857646
271154,11,0,2024-03-13T15:41:29.846Z,male_vraiment_flat_95.wav,0,False,982,69,F,6,0.426259,-19.601185
271154,11,0,2024-03-13T15:41:29.846Z,male_vraiment_flat_27.wav,1,True,982,69,F,0,0.000000,-44.196026
271154,11,0,2024-03-13T15:41:29.846Z,male_vraiment_flat_27.wav,1,True,982,69,F,1,0.071043,72.435582
271154,11,0,2024-03-13T15:41:29.846Z,male_vraiment_flat_27.wav,1,True,982,69,F,2,0.142086,30.880154
271154,11,0,2024-03-13T15:41:29.846Z,male_vraiment_flat_27.wav,1,True,982,69,F,3,0.213129,-98.055697
271154,11,0,2024-03-13T15:41:29.846Z,male_vraiment_flat_27.wav,1,True,982,69,F,4,0.284172,83.700413
271154,11,0,2024-03-13T15:41:29.846Z,male_vraiment_flat_27.wav,1,True,982,69,F,5,0.355215,23.865121
271154,11,0,2024-03-13T15:41:29.846Z,male_vraiment_flat_27.wav,1,True,982,69,F,6,0.426259,-44.006115
271154,12,0,2024-03-13T15:41:29.846Z,male_vraiment_flat_174.wav,0,False,1680,69,F,0,0.000000,12.449350
271154,12,0,2024-03-13T15:41:29.846Z,male_vraiment_flat_174.wav,0,False,1680,69,F,1,0.071043,17.986555
271154,12,0,2024-03-13T15:41:29.846Z,male_vraiment_flat_174.wav,0,False,1680,69,F,2,0.142086,-72.720888
271154,12,0,2024-03-13T15:41:29.846Z,male_vraiment_flat_174.wav,0,False,1680,69,F,3,0.213129,41.369679
271154,12,0,2024-03-13T15:41:29.846Z,male_vraiment_flat_174.wav,0,False,1680,69,F,4,0.284172,-146.787018
271154,12,0,2024-03-13T15:41:29.846Z,male_vraiment_flat_174.wav,0,False,1680,69,F,5,0.355215,3.271800
271154,12,0,2024-03-13T15:41:29.846Z,male_vraiment_flat_174.wav,0,False,1680,69,F,6,0.426259,26.686198
271154,12,0,2024-03-13T15:41:29.846Z,male_vraiment_flat_80.wav,1,True,1680,69,F,0,0.000000,74.549472
271154,12,0,2024-03-13T15:41:29.846Z,male_vraiment_flat_80.wav,1,True,1680,69,F,1,0.071043,28.548945
271154,12,0,2024-03-13T15:41:29.846Z,male_vraiment_flat_80.wav,1,True,1680,69,F,2,0.142086,-70.639605
271154,12,0,2024-03-13T15:41:29.846Z,male_vraiment_flat_80.wav,1,True,1680,69,F,3,0.213129,105.678511
271154,12,0,2024-03-13T15:41:29.846Z,male_vraiment_flat_80.wav,1,True,1680,69,F,4,0.284172,54.429698
271154,12,0,2024-03-13T15:41:29.846Z,male_vraiment_flat_80.wav,1,True,1680,69,F,5,0.355215,38.972413
271154,12,0,2024-03-13T15:41:29.846Z,male_vraiment_flat_80.wav,1,True,1680,69,F,6,0.426259,36.313071
271154,13,0,2024-03-13T15:41:29.846Z,male_vraiment_flat_96.wav,0,False,8423,69,F,0,0.000000,94.448216
271154,13,0,2024-03-13T15:41:29.846Z,male_vraiment_flat_96.wav,0,False,8423,69,F,1,0.071043,52.639741
271154,13,0,2024-03-13T15:41:29.846Z,male_vraiment_flat_96.wav,0,False,8423,69,F,2,0.142086,12.600351
271154,13,0,2024-03-13T15:41:29.846Z,male_vraiment_flat_96.wav,0,False,8423,69,F,3,0.213129,53.097554
271154,13,0,2024-03-13T15:41:29.846Z,male_vraiment_flat_96.wav,0,False,8423,69,F,4,0.284172,-62.165310
271154,13,0,2024-03-13T15:41:29.846Z,male_vraiment_flat_96.wav,0,False,8423,69,F,5,0.355215,18.022684
271154,13,0,2024-03-13T15:41:29.846Z,male_vraiment_flat_96.wav,0,False,8423,69,F,6,0.426259,-9.714791
271154,13,0,2024-03-13T15:41:29.846Z,male_vraiment_flat_135.wav,1,True,8423,69,F,0,0.000000,69.664553
271154,13,0,2024-03-13T15:41:29.846Z,male_vraiment_flat_135.wav,1,True,8423,69,F,1,0.071043,-40.692966
271154,13,0,2024-03-13T15:41:29.846Z,male_vraiment_flat_135.wav,1,True,8423,69,F,2,0.142086,-94.283336
271154,13,0,2024-03-13T15:41:29.846Z,male_vraiment_flat_135.wav,1,True,8423,69,F,3,0.213129,7.777910
271154,13,0,2024-03-13T15:41:29.846Z,male_vraiment_flat_135.wav,1,True,8423,69,F,4,0.284172,26.713191
271154,13,0,2024-03-13T15:41:29.846Z,male_vraiment_flat_135.wav,1,True,8423,69,F,5,0.355215,137.292776
271154,13,0,2024-03-13T15:41:29.846Z,male_vraiment_flat_135.wav,1,True,8423,69,F,6,0.426259,-136.153804
271154,14,0,2024-03-13T15:41:29.846Z,male_vraiment_flat_5.wav,0,False,4217,69,F,0,0.000000,88.556797
271154,14,0,2024-03-13T15:41:29.846Z,male_vraiment_flat_5.wav,0,False,4217,69,F,1,0.071043,120.959384
271154,14,0,2024-03-13T15:41:29.846Z,male_vraiment_flat_5.wav,0,False,4217,69,F,2,0.142086,-116.065822
271154,14,0,2024-03-13T15:41:29.846Z,male_vraiment_flat_5.wav,0,False,4217,69,F,3,0.213129,130.464712
271154,14,0,2024-03-13T15:41:29.846Z,male_vraiment_flat_5.wav,0,False,4217,69,F,4,0.284172,88.167919
271154,14,0,2024-03-13T15:41:29.846Z,male_vraiment_flat_5.wav,0,False,4217,69,F,5,0.355215,75.417329
271154,14,0,2024-03-13T15:41:29.846Z,male_vraiment_flat_5.wav,0,False,4217,69,F,6,0.426259,65.499211
271154,14,0,2024-03-13T15:41:29.846Z,male_vraiment_flat_148.wav,1,True,4217,69,F,0,0.000000,-84.148504
271154,14,0,2024-03-13T15:41:29.846Z,male_vraiment_flat_148.wav,1,True,4217,69,F,1,0.071043,116.395609
271154,14,0,2024-03-13T15:41:29.846Z,male_vraiment_flat_148.wav,1,True,4217,69,F,2,0.142086,22.272455
271154,14,0,2024-03-13T15:41:29.846Z,male_vraiment_flat_148.wav,1,True,4217,69,F,3,0.213129,-42.662376
271154,14,0,2024-03-13T15:41:29.846Z,male_vraiment_flat_148.wav,1,True,4217,69,F,4,0.284172,44.974228
271154,14,0,2024-03-13T15:41:29.846Z,male_vraiment_flat_148.wav,1,True,4217,69,F,5,0.355215,-100.807841
271154,14,0,2024-03-13T15:41:29.846Z,male_vraiment_flat_148.wav,1,True,4217,69,F,6,0.426259,75.062158
271154,15,0,2024-03-13T15:41:29.846Z,male_vraiment_flat_68.wav,0,False,1777,69,F,0,0.000000,-95.161618
271154,15,0,2024-03-13T15:41:29.846Z,male_vraiment_flat_68.wav,0,False,1777,69,F,1,0.071043,-119.152564
271154,15,0,2024-03-13T15:41:29.846Z,male_vraiment_flat_68.wav,0,False,1777,69,F,2,0.142086,18.051976
271154,15,0,2024-03-13T15:41:29.846Z,male_vraiment_flat_68.wav,0,False,1777,69,F,3,0.213129,-26.870716
271154,15,0,2024-03-13T15:41:29.846Z,male_vraiment_flat_68.wav,0,False,1777,69,F,4,0.284172,87.472746
271154,15,0,2024-03-13T15:41:29.846Z,male_vraiment_flat_68.wav,0,False,1777,69,F,5,0.355215,-56.607347
271154,15,0,2024-03-13T15:41:29.846Z,male_vraiment_flat_68.wav,0,False,1777,69,F,6,0.426259,148.066508
271154,15,0,2024-03-13T15:41:29.846Z,male_vraiment_flat_84.wav,1,True,1777,69,F,0,0.000000,79.222174
271154,15,0,2024-03-13T15:41:29.846Z,male_vraiment_flat_84.wav,1,True,1777,69,F,1,0.071043,61.816109
271154,15,0,2024-03-13T15:41:29.846Z,male_vraiment_flat_84.wav,1,True,1777,69,F,2,0.142086,-111.712238
271154,15,0,2024-03-13T15:41:29.846Z,male_vraiment_flat_84.wav,1,True,1777,69,F,3,0.213129,96.584947
271154,15,0,2024-03-13T15:41:29.846Z,male_vraiment_flat_84.wav,1,True,1777,69,F,4,0.284172,-11.292098
271154,15,0,2024-03-13T15:41:29.846Z,male_vraiment_flat_84.wav,1,True,1777,69,F,5,0.355215,57.720124
271154,15,0,2024-03-13T15:41:29.846Z,male_vraiment_flat_84.wav,1,True,1777,69,F,6,0.426259,-122.021307
271154,16,0,2024-03-13T15:41:29.846Z,male_vraiment_flat_107.wav,0,False,681,69,F,0,0.000000,147.824484
271154,16,0,2024-03-13T15:41:29.846Z,male_vraiment_flat_107.wav,0,False,681,69,F,1,0.071043,-35.753560
271154,16,0,2024-03-13T15:41:29.846Z,male_vraiment_flat_107.wav,0,False,681,69,F,2,0.142086,-17.671801
271154,16,0,2024-03-13T15:41:29.846Z,male_vraiment_flat_107.wav,0,False,681,69,F,3,0.213129,145.037411
271154,16,0,2024-03-13T15:41:29.846Z,male_vraiment_flat_107.wav,0,False,681,69,F,4,0.284172,17.430899
271154,16,0,2024-03-13T15:41:29.846Z,male_vraiment_flat_107.wav,0,False,681,69,F,5,0.355215,-34.827913
271154,16,0,2024-03-13T15:41:29.846Z,male_vraiment_flat_107.wav,0,False,681,69,F,6,0.426259,-148.430397
271154,16,0,2024-03-13T15:41:29.846Z,male_vraiment_flat_63.wav,1,True,681,69,F,0,0.000000,106.489910
271154,16,0,2024-03-13T15:41:29.846Z,male_vraiment_flat_63.wav,1,True,681,69,F,1,0.071043,-87.090173
271154,16,0,2024-03-13T15:41:29.846Z,male_vraiment_flat_63.wav,1,True,681,69,F,2,0.142086,63.865444
271154,16,0,2024-03-13T15:41:29.846Z,male_vraiment_flat_63.wav,1,True,681,69,F,3,0.213129,-130.111458
271154,16,0,2024-03-13T15:41:29.846Z,male_vraiment_flat_63.wav,1,True,681,69,F,4,0.284172,45.870405
271154,16,0,2024-03-13T15:41:29.846Z,male_vraiment_flat_63.wav,1,True,681,69,F,5,0.355215,-60.104934
271154,16,0,2024-03-13T15:41:29.846Z,male_vraiment_flat_63.wav,1,True,681,69,F,6,0.426259,67.674520
271154,17,0,2024-03-13T15:41:29.846Z,male_vraiment_flat_74.wav,0,False,621,69,F,0,0.000000,71.293232
271154,17,0,2024-03-13T15:41:29.846Z,male_vraiment_flat_74.wav,0,False,621,69,F,1,0.071043,32.860121
271154,17,0,2024-03-13T15:41:29.846Z,male_vraiment_flat_74.wav,0,False,621,69,F,2,0.142086,-85.825735
271154,17,0,2024-03-13T15:41:29.846Z,male_vraiment_flat_74.wav,0,False,621,69,F,3,0.213129,70.628085
271154,17,0,2024-03-13T15:41:29.846Z,male_vraiment_flat_74.wav,0,False,621,69,F,4,0.284172,126.928038
271154,17,0,2024-03-13T15:41:29.846Z,male_vraiment_flat_74.wav,0,False,621,69,F,5,0.355215,120.083362
271154,17,0,2024-03-13T15:41:29.846Z,male_vraiment_flat_74.wav,0,False,621,69,F,6,0.426259,92.661740
271154,17,0,2024-03-13T15:41:29.846Z,male_vraiment_flat_171.wav,1,True,621,69,F,0,0.000000,-132.910898
271154,17,0,2024-03-13T15:41:29.846Z,male_vraiment_flat_171.wav,1,True,621,69,F,1,0.071043,-40.348113
271154,17,0,2024-03-13T15:41:29.846Z,male_vraiment_flat_171.wav,1,True,621,69,F,2,0.142086,-144.469254
271154,17,0,2024-03-13T15:41:29.846Z,male_vraiment_flat_171.wav,1,True,621,69,F,3,0.213129,-148.365603
271154,17,0,2024-03-13T15:41:29.846Z,male_vraiment_flat_171.wav,1,True,621,69,F,4,0.284172,29.209812
271154,17,0,2024-03-13T15:41:29.846Z,male_vraiment_flat_171.wav,1,True,621,69,F,5,0.355215,-68.789467
271154,17,0,2024-03-13T15:41:29.846Z,male_vraiment_flat_171.wav,1,True,621,69,F,6,0.426259,116.539457
271154,18,0,2024-03-13T15:41:29.846Z,male_vraiment_flat_46.wav,0,False,676,69,F,0,0.000000,48.231571
271154,18,0,2024-03-13T15:41:29.846Z,male_vraiment_flat_46.wav,0,False,676,69,F,1,0.071043,-13.386862
271154,18,0,2024-03-13T15:41:29.846Z,male_vraiment_flat_46.wav,0,False,676,69,F,2,0.142086,107.175029
271154,18,0,2024-03-13T15:41:29.846Z,male_vraiment_flat_46.wav,0,False,676,69,F,3,0.213129,24.056117
271154,18,0,2024-03-13T15:41:29.846Z,male_vraiment_flat_46.wav,0,False,676,69,F,4,0.284172,72.951541
271154,18,0,2024-03-13T15:41:29.846Z,male_vraiment_flat_46.wav,0,False,676,69,F,5,0.355215,123.539508
271154,18,0,2024-03-13T15:41:29.846Z,male_vraiment_flat_46.wav,0,False,676,69,F,6,0.426259,50.410407
271154,18,0,2024-03-13T15:41:29.846Z,male_vraiment_flat_179.wav,1,True,676,69,F,0,0.000000,31.793897
271154,18,0,2024-03-13T15:41:29.846Z,male_vraiment_flat_179.wav,1,True,676,69,F,1,0.071043,-7.766660
271154,18,0,2024-03-13T15:41:29.846Z,male_vraiment_flat_179.wav,1,True,676,69,F,2,0.142086,14.202215
271154,18,0,2024-03-13T15:41:29.846Z,male_vraiment_flat_179.wav,1,True,676,69,F,3,0.213129,-28.726082
271154,18,0,2024-03-13T15:41:29.846Z,male_vraiment_flat_179.wav,1,True,676,69,F,4,0.284172,-38.298342
271154,18,0,2024-03-13T15:41:29.846Z,male_vraiment_flat_179.wav,1,True,676,69,F,5,0.355215,97.025797
271154,18,0,2024-03-13T15:41:29.846Z,male_vraiment_flat_179.wav,1,True,676,69,F,6,0.426259,-148.112175
271154,19,0,2024-03-13T15:41:29.846Z,male_vraiment_flat_122.wav,0,False,815,69,F,0,0.000000,-51.664448
271154,19,0,2024-03-13T15:41:29.846Z,male_vraiment_flat_122.wav,0,False,815,69,F,1,0.071043,-83.789448
271154,19,0,2024-03-13T15:41:29.846Z,male_vraiment_flat_122.wav,0,False,815,69,F,2,0.142086,-129.204529
271154,19,0,2024-03-13T15:41:29.846Z,male_vraiment_flat_122.wav,0,False,815,69,F,3,0.213129,-2.729810
271154,19,0,2024-03-13T15:41:29.846Z,male_vraiment_flat_122.wav,0,False,815,69,F,4,0.284172,-63.338530
271154,19,0,2024-03-13T15:41:29.846Z,male_vraiment_flat_122.wav,0,False,815,69,F,5,0.355215,57.342517
271154,19,0,2024-03-13T15:41:29.846Z,male_vraiment_flat_122.wav,0,False,815,69,F,6,0.426259,30.309816
271154,19,0,2024-03-13T15:41:29.846Z,male_vraiment_flat_193.wav,1,True,815,69,F,0,0.000000,-104.498046
271154,19,0,2024-03-13T15:41:29.846Z,male_vraiment_flat_193.wav,1,True,815,69,F,1,0.071043,27.454942
271154,19,0,2024-03-13T15:41:29.846Z,male_vraiment_flat_193.wav,1,True,815,69,F,2,0.142086,-81.084240
271154,19,0,2024-03-13T15:41:29.846Z,male_vraiment_flat_193.wav,1,True,815,69,F,3,0.213129,-66.105426
271154,19,0,2024-03-13T15:41:29.846Z,male_vraiment_flat_193.wav,1,True,815,69,F,4,0.284172,-18.843418
271154,19,0,2024-03-13T15:41:29.846Z,male_vraiment_flat_193.wav,1,True,815,69,F,5,0.355215,59.447118
271154,19,0,2024-03-13T15:41:29.846Z,male_vraiment_flat_193.wav,1,True,815,69,F,6,0.426259,86.357299
271154,20,0,2024-03-13T15:41:29.846Z,male_vraiment_flat_164.wav,0,False,2258,69,F,0,0.000000,-99.029475
271154,20,0,2024-03-13T15:41:29.846Z,male_vraiment_flat_164.wav,0,False,2258,69,F,1,0.071043,-83.219544
271154,20,0,2024-03-13T15:41:29.846Z,male_vraiment_flat_164.wav,0,False,2258,69,F,2,0.142086,-76.160804
271154,20,0,2024-03-13T15:41:29.846Z,male_vraiment_flat_164.wav,0,False,2258,69,F,3,0.213129,-60.412119
271154,20,0,2024-03-13T15:41:29.846Z,male_vraiment_flat_164.wav,0,False,2258,69,F,4,0.284172,-135.438027
271154,20,0,2024-03-13T15:41:29.846Z,male_vraiment_flat_164.wav,0,False,2258,69,F,5,0.355215,-30.546522
271154,20,0,2024-03-13T15:41:29.846Z,male_vraiment_flat_164.wav,0,False,2258,69,F,6,0.426259,-142.367635
271154,20,0,2024-03-13T15:41:29.846Z,male_vraiment_flat_56.wav,1,True,2258,69,F,0,0.000000,30.953431
271154,20,0,2024-03-13T15:41:29.846Z,male_vraiment_flat_56.wav,1,True,2258,69,F,1,0.071043,-50.543389
271154,20,0,2024-03-13T15:41:29.846Z,male_vraiment_flat_56.wav,1,True,2258,69,F,2,0.142086,-40.325616
271154,20,0,2024-03-13T15:41:29.846Z,male_vraiment_flat_56.wav,1,True,2258,69,F,3,0.213129,130.397773
271154,20,0,2024-03-13T15:41:29.846Z,male_vraiment_flat_56.wav,1,True,2258,69,F,4,0.284172,-66.278306
271154,20,0,2024-03-13T15:41:29.846Z,male_vraiment_flat_56.wav,1,True,2258,69,F,5,0.355215,127.583751
271154,20,0,2024-03-13T15:41:29.846Z,male_vraiment_flat_56.wav,1,True,2258,69,F,6,0.426259,-120.769688
271154,21,0,2024-03-13T15:41:29.846Z,male_vraiment_flat_152.wav,0,False,845,69,F,0,0.000000,-121.409464
271154,21,0,2024-03-13T15:41:29.846Z,male_vraiment_flat_152.wav,0,False,845,69,F,1,0.071043,26.229918
271154,21,0,2024-03-13T15:41:29.846Z,male_vraiment_flat_152.wav,0,False,845,69,F,2,0.142086,46.107283
271154,21,0,2024-03-13T15:41:29.846Z,male_vraiment_flat_152.wav,0,False,845,69,F,3,0.213129,-122.378424
271154,21,0,2024-03-13T15:41:29.846Z,male_vraiment_flat_152.wav,0,False,845,69,F,4,0.284172,64.911076
271154,21,0,2024-03-13T15:41:29.846Z,male_vraiment_flat_152.wav,0,False,845,69,F,5,0.355215,129.744578
271154,21,0,2024-03-13T15:41:29.846Z,male_vraiment_flat_152.wav,0,False,845,69,F,6,0.426259,51.632825
271154,21,0,2024-03-13T15:41:29.846Z,male_vraiment_flat_78.wav,1,True,845,69,F,0,0.000000,80.055785
271154,21,0,2024-03-13T15:41:29.846Z,male_vraiment_flat_78.wav,1,True,845,69,F,1,0.071043,117.831593
271154,21,0,2024-03-13T15:41:29.846Z,male_vraiment_flat_78.wav,1,True,845,69,F,2,0.142086,-32.666549
271154,21,0,2024-03-13T15:41:29.846Z,male_vraiment_flat_78.wav,1,True,845,69,F,3,0.213129,67.905321
271154,21,0,2024-03-13T15:41:29.846Z,male_vraiment_flat_78.wav,1,True,845,69,F,4,0.284172,84.716683
271154,21,0,2024-03-13T15:41:29.846Z,male_vraiment_flat_78.wav,1,True,845,69,F,5,0.355215,30.832945
271154,21,0,2024-03-13T15:41:29.846Z,male_vraiment_flat_78.wav,1,True,845,69,F,6,0.426259,87.837740
271154,22,0,2024-03-13T15:41:29.846Z,male_vraiment_flat_125.wav,0,False,654,69,F,0,0.000000,-40.862052
271154,22,0,2024-03-13T15:41:29.846Z,male_vraiment_flat_125.wav,0,False,654,69,F,1,0.071043,93.193290
271154,22,0,2024-03-13T15:41:29.846Z,male_vraiment_flat_125.wav,0,False,654,69,F,2,0.142086,71.046063
271154,22,0,2024-03-13T15:41:29.846Z,male_vraiment_flat_125.wav,0,False,654,69,F,3,0.213129,-144.093496
271154,22,0,2024-03-13T15:41:29.846Z,male_vraiment_flat_125.wav,0,False,654,69,F,4,0.284172,-1.218193
271154,22,0,2024-03-13T15:41:29.846Z,male_vraiment_flat_125.wav,0,False,654,69,F,5,0.355215,94.223966
271154,22,0,2024-03-13T15:41:29.846Z,male_vraiment_flat_125.wav,0,False,654,69,F,6,0.426259,-56.349938
271154,22,0,2024-03-13T15:41:29.846Z,male_vraiment_flat_141.wav,1,True,654,69,F,0,0.000000,137.275446
271154,22,0,2024-03-13T15:41:29.846Z,male_vraiment_flat_141.wav,1,True,654,69,F,1,0.071043,43.805847
271154,22,0,2024-03-13T15:41:29.846Z,male_vraiment_flat_141.wav,1,True,654,69,F,2,0.142086,-129.344909
271154,22,0,2024-03-13T15:41:29.846Z,male_vraiment_flat_141.wav,1,True,654,69,F,3,0.213129,-123.799171
271154,22,0,2024-03-13T15:41:29.846Z,male_vraiment_flat_141.wav,1,True,654,69,F,4,0.284172,-103.584410
271154,22,0,2024-03-13T15:41:29.846Z,male_vraiment_flat_141.wav,1,True,654,69,F,5,0.355215,8.047141
271154,22,0,2024-03-13T15:41:29.846Z,male_vraiment_flat_141.wav,1,True,654,69,F,6,0.426259,-108.188423
271154,23,0,2024-03-13T15:41:29.846Z,male_vraiment_flat_6.wav,0,False,518,69,F,0,0.000000,99.637695
271154,23,0,2024-03-13T15:41:29.846Z,male_vraiment_flat_6.wav,0,False,518,69,F,1,0.071043,129.019395
271154,23,0,2024-03-13T15:41:29.846Z,male_vraiment_flat_6.wav,0,False,518,69,F,2,0.142086,85.352544
271154,23,0,2024-03-13T15:41:29.846Z,male_vraiment_flat_6.wav,0,False,518,69,F,3,0.213129,122.275637
271154,23,0,2024-03-13T15:41:29.846Z,male_vraiment_flat_6.wav,0,False,518,69,F,4,0.284172,45.838224
271154,23,0,2024-03-13T15:41:29.846Z,male_vraiment_flat_6.wav,0,False,518,69,F,5,0.355215,149.126562
271154,23,0,2024-03-13T15:41:29.846Z,male_vraiment_flat_6.wav,0,False,518,69,F,6,0.426259,9.632372
271154,23,0,2024-03-13T15:41:29.846Z,male_vraiment_flat_2.wav,1,True,518,69,F,0,0.000000,-26.280713
271154,23,0,2024-03-13T15:41:29.846Z,male_vraiment_flat_2.wav,1,True,518,69,F,1,0.071043,83.932106
271154,23,0,2024-03-13T15:41:29.846Z,male_vraiment_flat_2.wav,1,True,518,69,F,2,0.142086,59.369452
271154,23,0,2024-03-13T15:41:29.846Z,male_vraiment_flat_2.wav,1,True,518,69,F,3,0.213129,8.881156
271154,23,0,2024-03-13T15:41:29.846Z,male_vraiment_flat_2.wav,1,True,518,69,F,4,0.284172,3.498385
271154,23,0,2024-03-13T15:41:29.846Z,male_vraiment_flat_2.wav,1,True,518,69,F,5,0.355215,-133.430007
271154,23,0,2024-03-13T15:41:29.846Z,male_vraiment_flat_2.wav,1,True,518,69,F,6,0.426259,94.606197
271154,24,0,2024-03-13T15:41:29.846Z,male_vraiment_flat_49.wav,0,False,794,69,F,0,0.000000,-83.600042
271154,24,0,2024-03-13T15:41:29.846Z,male_vraiment_flat_49.wav,0,False,794,69,F,1,0.071043,-14.728623
271154,24,0,2024-03-13T15:41:29.846Z,male_vraiment_flat_49.wav,0,False,794,69,F,2,0.142086,25.142138
271154,24,0,2024-03-13T15:41:29.846Z,male_vraiment_flat_49.wav,0,False,794,69,F,3,0.213129,135.875151
271154,24,0,2024-03-13T15:41:29.846Z,male_vraiment_flat_49.wav,0,False,794,69,F,4,0.284172,60.117986
271154,24,0,2024-03-13T15:41:29.846Z,male_vraiment_flat_49.wav,0,False,794,69,F,5,0.355215,-135.086661
271154,24,0,2024-03-13T15:41:29.846Z,male_vraiment_flat_49.wav,0,False,794,69,F,6,0.426259,-32.809615
271154,24,0,2024-03-13T15:41:29.846Z,male_vraiment_flat_118.wav,1,True,794,69,F,0,0.000000,126.187147
271154,24,0,2024-03-13T15:41:29.846Z,male_vraiment_flat_118.wav,1,True,794,69,F,1,0.071043,44.969184
271154,24,0,2024-03-13T15:41:29.846Z,male_vraiment_flat_118.wav,1,True,794,69,F,2,0.142086,-108.017243
271154,24,0,2024-03-13T15:41:29.846Z,male_vraiment_flat_118.wav,1,True,794,69,F,3,0.213129,6.480803
271154,24,0,2024-03-13T15:41:29.846Z,male_vraiment_flat_118.wav,1,True,794,69,F,4,0.284172,89.811831
271154,24,0,2024-03-13T15:41:29.846Z,male_vraiment_flat_118.wav,1,True,794,69,F,5,0.355215,60.034007
271154,24,0,2024-03-13T15:41:29.846Z,male_vraiment_flat_118.wav,1,True,794,69,F,6,0.426259,63.317816
271154,25,0,2024-03-13T15:41:29.846Z,male_vraiment_flat_66.wav,0,False,714,69,F,0,0.000000,96.429433
271154,25,0,2024-03-13T15:41:29.846Z,male_vraiment_flat_66.wav,0,False,714,69,F,1,0.071043,13.373052
271154,25,0,2024-03-13T15:41:29.846Z,male_vraiment_flat_66.wav,0,False,714,69,F,2,0.142086,112.602816
271154,25,0,2024-03-13T15:41:29.846Z,male_vraiment_flat_66.wav,0,False,714,69,F,3,0.213129,110.292573
271154,25,0,2024-03-13T15:41:29.846Z,male_vraiment_flat_66.wav,0,False,714,69,F,4,0.284172,-89.729138
271154,25,0,2024-03-13T15:41:29.846Z,male_vraiment_flat_66.wav,0,False,714,69,F,5,0.355215,-67.456514
271154,25,0,2024-03-13T15:41:29.846Z,male_vraiment_flat_66.wav,0,False,714,69,F,6,0.426259,79.997172
271154,25,0,2024-03-13T15:41:29.846Z,male_vraiment_flat_169.wav,1,True,714,69,F,0,0.000000,117.441793
271154,25,0,2024-03-13T15:41:29.846Z,male_vraiment_flat_169.wav,1,True,714,69,F,1,0.071043,-117.459261
271154,25,0,2024-03-13T15:41:29.846Z,male_vraiment_flat_169.wav,1,True,714,69,F,2,0.142086,-45.020491
271154,25,0,2024-03-13T15:41:29.846Z,male_vraiment_flat_169.wav,1,True,714,69,F,3,0.213129,-67.699150
271154,25,0,2024-03-13T15:41:29.846Z,male_vraiment_flat_169.wav,1,True,714,69,F,4,0.284172,-122.755451
271154,25,0,2024-03-13T15:41:29.846Z,male_vraiment_flat_169.wav,1,True,714,69,F,5,0.355215,-10.702133
271154,25,0,2024-03-13T15:41:29.846Z,male_vraiment_flat_169.wav,1,True,714,69,F,6,0.426259,66.943327
271154,26,0,2024-03-13T15:41:29.846Z,male_vraiment_flat_13.wav,0,False,659,69,F,0,0.000000,-66.984077
271154,26,0,2024-03-13T15:41:29.846Z,male_vraiment_flat_13.wav,0,False,659,69,F,1,0.071043,5.429279
271154,26,0,2024-03-13T15:41:29.846Z,male_vraiment_flat_13.wav,0,False,659,69,F,2,0.142086,12.572717
271154,26,0,2024-03-13T15:41:29.846Z,male_vraiment_flat_13.wav,0,False,659,69,F,3,0.213129,-71.562953
271154,26,0,2024-03-13T15:41:29.846Z,male_vraiment_flat_13.wav,0,False,659,69,F,4,0.284172,-107.999901
271154,26,0,2024-03-13T15:41:29.846Z,male_vraiment_flat_13.wav,0,False,659,69,F,5,0.355215,86.606735
271154,26,0,2024-03-13T15:41:29.846Z,male_vraiment_flat_13.wav,0,False,659,69,F,6,0.426259,-82.122177
271154,26,0,2024-03-13T15:41:29.846Z,male_vraiment_flat_64.wav,1,True,659,69,F,0,0.000000,113.461811
271154,26,0,2024-03-13T15:41:29.846Z,male_vraiment_flat_64.wav,1,True,659,69,F,1,0.071043,60.375974
271154,26,0,2024-03-13T15:41:29.846Z,male_vraiment_flat_64.wav,1,True,659,69,F,2,0.142086,-103.339599
271154,26,0,2024-03-13T15:41:29.846Z,male_vraiment_flat_64.wav,1,True,659,69,F,3,0.213129,103.179307
271154,26,0,2024-03-13T15:41:29.846Z,male_vraiment_flat_64.wav,1,True,659,69,F,4,0.284172,81.101135
271154,26,0,2024-03-13T15:41:29.846Z,male_vraiment_flat_64.wav,1,True,659,69,F,5,0.355215,-3.861127
271154,26,0,2024-03-13T15:41:29.846Z,male_vraiment_flat_64.wav,1,True,659,69,F,6,0.426259,-77.158959
271154,27,0,2024-03-13T15:41:29.846Z,male_vraiment_flat_16.wav,0,False,925,69,F,0,0.000000,141.243943
271154,27,0,2024-03-13T15:41:29.846Z,male_vraiment_flat_16.wav,0,False,925,69,F,1,0.071043,-34.322435
271154,27,0,2024-03-13T15:41:29.846Z,male_vraiment_flat_16.wav,0,False,925,69,F,2,0.142086,10.018864
271154,27,0,2024-03-13T15:41:29.846Z,male_vraiment_flat_16.wav,0,False,925,69,F,3,0.213129,-24.066951
271154,27,0,2024-03-13T15:41:29.846Z,male_vraiment_flat_16.wav,0,False,925,69,F,4,0.284172,45.502655
271154,27,0,2024-03-13T15:41:29.846Z,male_vraiment_flat_16.wav,0,False,925,69,F,5,0.355215,107.276086
271154,27,0,2024-03-13T15:41:29.846Z,male_vraiment_flat_16.wav,0,False,925,69,F,6,0.426259,58.110380
271154,27,0,2024-03-13T15:41:29.846Z,male_vraiment_flat_23.wav,1,True,925,69,F,0,0.000000,27.345676
271154,27,0,2024-03-13T15:41:29.846Z,male_vraiment_flat_23.wav,1,True,925,69,F,1,0.071043,118.378449
271154,27,0,2024-03-13T15:41:29.846Z,male_vraiment_flat_23.wav,1,True,925,69,F,2,0.142086,35.467907
271154,27,0,2024-03-13T15:41:29.846Z,male_vraiment_flat_23.wav,1,True,925,69,F,3,0.213129,-5.979973
271154,27,0,2024-03-13T15:41:29.846Z,male_vraiment_flat_23.wav,1,True,925,69,F,4,0.284172,18.578162
271154,27,0,2024-03-13T15:41:29.846Z,male_vraiment_flat_23.wav,1,True,925,69,F,5,0.355215,-9.540782
271154,27,0,2024-03-13T15:41:29.846Z,male_vraiment_flat_23.wav,1,True,925,69,F,6,0.426259,-13.092534
271154,28,0,2024-03-13T15:41:29.846Z,male_vraiment_flat_182.wav,0,False,1108,69,F,0,0.000000,20.855134
271154,28,0,2024-03-13T15:41:29.846Z,male_vraiment_flat_182.wav,0,False,1108,69,F,1,0.071043,131.000404
271154,28,0,2024-03-13T15:41:29.846Z,male_vraiment_flat_182.wav,0,False,1108,69,F,2,0.142086,-24.691908
271154,28,0,2024-03-13T15:41:29.846Z,male_vraiment_flat_182.wav,0,False,1108,69,F,3,0.213129,128.422786
271154,28,0,2024-03-13T15:41:29.846Z,male_vraiment_flat_182.wav,0,False,1108,69,F,4,0.284172,-128.848387
271154,28,0,2024-03-13T15:41:29.846Z,male_vraiment_flat_182.wav,0,False,1108,69,F,5,0.355215,118.792618
271154,28,0,2024-03-13T15:41:29.846Z,male_vraiment_flat_182.wav,0,False,1108,69,F,6,0.426259,-92.475253
271154,28,0,2024-03-13T15:41:29.846Z,male_vraiment_flat_158.wav,1,True,1108,69,F,0,0.000000,140.907348
271154,28,0,2024-03-13T15:41:29.846Z,male_vraiment_flat_158.wav,1,True,1108,69,F,1,0.071043,56.647301
271154,28,0,2024-03-13T15:41:29.846Z,male_vraiment_flat_158.wav,1,True,1108,69,F,2,0.142086,-121.852756
271154,28,0,2024-03-13T15:41:29.846Z,male_vraiment_flat_158.wav,1,True,1108,69,F,3,0.213129,24.887877
271154,28,0,2024-03-13T15:41:29.846Z,male_vraiment_flat_158.wav,1,True,1108,69,F,4,0.284172,-16.147612
271154,28,0,2024-03-13T15:41:29.846Z,male_vraiment_flat_158.wav,1,True,1108,69,F,5,0.355215,22.171837
271154,28,0,2024-03-13T15:41:29.846Z,male_vraiment_flat_158.wav,1,True,1108,69,F,6,0.426259,-49.022546
271154,29,0,2024-03-13T15:41:29.846Z,male_vraiment_flat_62.wav,0,False,805,69,F,0,0.000000,-118.782832
271154,29,0,2024-03-13T15:41:29.846Z,male_vraiment_flat_62.wav,0,False,805,69,F,1,0.071043,-35.995173
271154,29,0,2024-03-13T15:41:29.846Z,male_vraiment_flat_62.wav,0,False,805,69,F,2,0.142086,21.697311
271154,29,0,2024-03-13T15:41:29.846Z,male_vraiment_flat_62.wav,0,False,805,69,F,3,0.213129,22.125919
271154,29,0,2024-03-13T15:41:29.846Z,male_vraiment_flat_62.wav,0,False,805,69,F,4,0.284172,-42.995885
271154,29,0,2024-03-13T15:41:29.846Z,male_vraiment_flat_62.wav,0,False,805,69,F,5,0.355215,-84.376770
271154,29,0,2024-03-13T15:41:29.846Z,male_vraiment_flat_62.wav,0,False,805,69,F,6,0.426259,-12.230862
271154,29,0,2024-03-13T15:41:29.846Z,male_vraiment_flat_117.wav,1,True,805,69,F,0,0.000000,20.648074
271154,29,0,2024-03-13T15:41:29.846Z,male_vraiment_flat_117.wav,1,True,805,69,F,1,0.071043,145.233438
271154,29,0,2024-03-13T15:41:29.846Z,male_vraiment_flat_117.wav,1,True,805,69,F,2,0.142086,42.346521
271154,29,0,2024-03-13T15:41:29.846Z,male_vraiment_flat_117.wav,1,True,805,69,F,3,0.213129,-116.594338
271154,29,0,2024-03-13T15:41:29.846Z,male_vraiment_flat_117.wav,1,True,805,69,F,4,0.284172,94.892274
271154,29,0,2024-03-13T15:41:29.846Z,male_vraiment_flat_117.wav,1,True,805,69,F,5,0.355215,-123.170662
271154,29,0,2024-03-13T15:41:29.846Z,male_vraiment_flat_117.wav,1,True,805,69,F,6,0.426259,83.715702
271154,30,0,2024-03-13T15:41:29.846Z,male_vraiment_flat_15.wav,0,False,864,69,F,0,0.000000,-99.515509
271154,30,0,2024-03-13T15:41:29.846Z,male_vraiment_flat_15.wav,0,False,864,69,F,1,0.071043,-34.266668
271154,30,0,2024-03-13T15:41:29.846Z,male_vraiment_flat_15.wav,0,False,864,69,F,2,0.142086,14.847828
271154,30,0,2024-03-13T15:41:29.846Z,male_vraiment_flat_15.wav,0,False,864,69,F,3,0.213129,69.933849
271154,30,0,2024-03-13T15:41:29.846Z,male_vraiment_flat_15.wav,0,False,864,69,F,4,0.284172,112.308778
271154,30,0,2024-03-13T15:41:29.846Z,male_vraiment_flat_15.wav,0,False,864,69,F,5,0.355215,84.391608
271154,30,0,2024-03-13T15:41:29.846Z,male_vraiment_flat_15.wav,0,False,864,69,F,6,0.426259,-74.687150
271154,30,0,2024-03-13T15:41:29.846Z,male_vraiment_flat_106.wav,1,True,864,69,F,0,0.000000,13.442505
271154,30,0,2024-03-13T15:41:29.846Z,male_vraiment_flat_106.wav,1,True,864,69,F,1,0.071043,67.880832
271154,30,0,2024-03-13T15:41:29.846Z,male_vraiment_flat_106.wav,1,True,864,69,F,2,0.142086,105.927648
271154,30,0,2024-03-13T15:41:29.846Z,male_vraiment_flat_106.wav,1,True,864,69,F,3,0.213129,65.041696
271154,30,0,2024-03-13T15:41:29.846Z,male_vraiment_flat_106.wav,1,True,864,69,F,4,0.284172,-59.466654
271154,30,0,2024-03-13T15:41:29.846Z,male_vraiment_flat_106.wav,1,True,864,69,F,5,0.355215,55.710963
271154,30,0,2024-03-13T15:41:29.846Z,male_vraiment_flat_106.wav,1,True,864,69,F,6,0.426259,127.964857
271154,31,0,2024-03-13T15:41:29.846Z,male_vraiment_flat_70.wav,0,False,846,69,F,0,0.000000,-95.640606
271154,31,0,2024-03-13T15:41:29.846Z,male_vraiment_flat_70.wav,0,False,846,69,F,1,0.071043,17.584667
271154,31,0,2024-03-13T15:41:29.846Z,male_vraiment_flat_70.wav,0,False,846,69,F,2,0.142086,9.439432
271154,31,0,2024-03-13T15:41:29.846Z,male_vraiment_flat_70.wav,0,False,846,69,F,3,0.213129,26.204853
271154,31,0,2024-03-13T15:41:29.846Z,male_vraiment_flat_70.wav,0,False,846,69,F,4,0.284172,19.735476
271154,31,0,2024-03-13T15:41:29.846Z,male_vraiment_flat_70.wav,0,False,846,69,F,5,0.355215,-45.465161
271154,31,0,2024-03-13T15:41:29.846Z,male_vraiment_flat_70.wav,0,False,846,69,F,6,0.426259,24.901866
271154,31,0,2024-03-13T15:41:29.846Z,male_vraiment_flat_116.wav,1,True,846,69,F,0,0.000000,-80.686828
271154,31,0,2024-03-13T15:41:29.846Z,male_vraiment_flat_116.wav,1,True,846,69,F,1,0.071043,-31.189533
271154,31,0,2024-03-13T15:41:29.846Z,male_vraiment_flat_116.wav,1,True,846,69,F,2,0.142086,-144.914474
271154,31,0,2024-03-13T15:41:29.846Z,male_vraiment_flat_116.wav,1,True,846,69,F,3,0.213129,-49.653212
271154,31,0,2024-03-13T15:41:29.846Z,male_vraiment_flat_116.wav,1,True,846,69,F,4,0.284172,-94.646547
271154,31,0,2024-03-13T15:41:29.846Z,male_vraiment_flat_116.wav,1,True,846,69,F,5,0.355215,-38.055332
271154,31,0,2024-03-13T15:41:29.846Z,male_vraiment_flat_116.wav,1,True,846,69,F,6,0.426259,-90.510946
271154,32,0,2024-03-13T15:41:29.846Z,male_vraiment_flat_60.wav,0,False,657,69,F,0,0.000000,-89.296237
271154,32,0,2024-03-13T15:41:29.846Z,male_vraiment_flat_60.wav,0,False,657,69,F,1,0.071043,0.647875
271154,32,0,2024-03-13T15:41:29.846Z,male_vraiment_flat_60.wav,0,False,657,69,F,2,0.142086,-124.228045
271154,32,0,2024-03-13T15:41:29.846Z,male_vraiment_flat_60.wav,0,False,657,69,F,3,0.213129,-147.365900
271154,32,0,2024-03-13T15:41:29.846Z,male_vraiment_flat_60.wav,0,False,657,69,F,4,0.284172,-7.428030
271154,32,0,2024-03-13T15:41:29.846Z,male_vraiment_flat_60.wav,0,False,657,69,F,5,0.355215,-42.828577
271154,32,0,2024-03-13T15:41:29.846Z,male_vraiment_flat_60.wav,0,False,657,69,F,6,0.426259,-114.882786
271154,32,0,2024-03-13T15:41:29.846Z,male_vraiment_flat_9.wav,1,True,657,69,F,0,0.000000,85.332288
271154,32,0,2024-03-13T15:41:29.846Z,male_vraiment_flat_9.wav,1,True,657,69,F,1,0.071043,-113.949520
271154,32,0,2024-03-13T15:41:29.846Z,male_vraiment_flat_9.wav,1,True,657,69,F,2,0.142086,22.848070
271154,32,0,2024-03-13T15:41:29.846Z,male_vraiment_flat_9.wav,1,True,657,69,F,3,0.213129,-135.528843
271154,32,0,2024-03-13T15:41:29.846Z,male_vraiment_flat_9.wav,1,True,657,69,F,4,0.284172,76.460330
271154,32,0,2024-03-13T15:41:29.846Z,male_vraiment_flat_9.wav,1,True,657,69,F,5,0.355215,72.455461
271154,32,0,2024-03-13T15:41:29.846Z,male_vraiment_flat_9.wav,1,True,657,69,F,6,0.426259,-135.542556
271154,33,0,2024-03-13T15:41:29.846Z,male_vraiment_flat_71.wav,0,False,650,69,F,0,0.000000,98.558580
271154,33,0,2024-03-13T15:41:29.846Z,male_vraiment_flat_71.wav,0,False,650,69,F,1,0.071043,119.886109
271154,33,0,2024-03-13T15:41:29.846Z,male_vraiment_flat_71.wav,0,False,650,69,F,2,0.142086,-7.976954
271154,33,0,2024-03-13T15:41:29.846Z,male_vraiment_flat_71.wav,0,False,650,69,F,3,0.213129,7.397873
271154,33,0,2024-03-13T15:41:29.846Z,male_vraiment_flat_71.wav,0,False,650,69,F,4,0.284172,8.946833
271154,33,0,2024-03-13T15:41:29.846Z,male_vraiment_flat_71.wav,0,False,650,69,F,5,0.355215,-77.850016
271154,33,0,2024-03-13T15:41:29.846Z,male_vraiment_flat_71.wav,0,False,650,69,F,6,0.426259,-8.433981
271154,33,0,2024-03-13T15:41:29.846Z,male_vraiment_flat_98.wav,1,True,650,69,F,0,0.000000,102.170357
271154,33,0,2024-03-13T15:41:29.846Z,male_vraiment_flat_98.wav,1,True,650,69,F,1,0.071043,20.715456
271154,33,0,2024-03-13T15:41:29.846Z,male_vraiment_flat_98.wav,1,True,650,69,F,2,0.142086,81.972821
271154,33,0,2024-03-13T15:41:29.846Z,male_vraiment_flat_98.wav,1,True,650,69,F,3,0.213129,-125.018297
271154,33,0,2024-03-13T15:41:29.846Z,male_vraiment_flat_98.wav,1,True,650,69,F,4,0.284172,103.374214
271154,33,0,2024-03-13T15:41:29.846Z,male_vraiment_flat_98.wav,1,True,650,69,F,5,0.355215,-81.704677
271154,33,0,2024-03-13T15:41:29.846Z,male_vraiment_flat_98.wav,1,True,650,69,F,6,0.426259,85.109238
271154,34,0,2024-03-13T15:41:29.846Z,male_vraiment_flat_197.wav,0,False,500,69,F,0,0.000000,7.012988
271154,34,0,2024-03-13T15:41:29.846Z,male_vraiment_flat_197.wav,0,False,500,69,F,1,0.071043,64.551185
271154,34,0,2024-03-13T15:41:29.846Z,male_vraiment_flat_197.wav,0,False,500,69,F,2,0.142086,-65.392523
271154,34,0,2024-03-13T15:41:29.846Z,male_vraiment_flat_197.wav,0,False,500,69,F,3,0.213129,18.180118
271154,34,0,2024-03-13T15:41:29.846Z,male_vraiment_flat_197.wav,0,False,500,69,F,4,0.284172,-30.775220
271154,34,0,2024-03-13T15:41:29.846Z,male_vraiment_flat_197.wav,0,False,500,69,F,5,0.355215,95.802549
271154,34,0,2024-03-13T15:41:29.846Z,male_vraiment_flat_197.wav,0,False,500,69,F,6,0.426259,-129.373786
271154,34,0,2024-03-13T15:41:29.846Z,male_vraiment_flat_44.wav,1,True,500,69,F,0,0.000000,-41.207511
271154,34,0,2024-03-13T15:41:29.846Z,male_vraiment_flat_44.wav,1,True,500,69,F,1,0.071043,-36.343841
271154,34,0,2024-03-13T15:41:29.846Z,male_vraiment_flat_44.wav,1,True,500,69,F,2,0.142086,111.477084
271154,34,0,2024-03-13T15:41:29.846Z,male_vraiment_flat_44.wav,1,True,500,69,F,3,0.213129,5.942406
271154,34,0,2024-03-13T15:41:29.846Z,male_vraiment_flat_44.wav,1,True,500,69,F,4,0.284172,108.539673
271154,34,0,2024-03-13T15:41:29.846Z,male_vraiment_flat_44.wav,1,True,500,69,F,5,0.355215,-120.732661
271154,34,0,2024-03-13T15:41:29.846Z,male_vraiment_flat_44.wav,1,True,500,69,F,6,0.426259,-22.824839
271154,35,0,2024-03-13T15:41:29.846Z,male_vraiment_flat_150.wav,0,False,967,69,F,0,0.000000,-0.845919
271154,35,0,2024-03-13T15:41:29.846Z,male_vraiment_flat_150.wav,0,False,967,69,F,1,0.071043,-101.665398
271154,35,0,2024-03-13T15:41:29.846Z,male_vraiment_flat_150.wav,0,False,967,69,F,2,0.142086,-128.909269
271154,35,0,2024-03-13T15:41:29.846Z,male_vraiment_flat_150.wav,0,False,967,69,F,3,0.213129,-98.956601
271154,35,0,2024-03-13T15:41:29.846Z,male_vraiment_flat_150.wav,0,False,967,69,F,4,0.284172,-120.693020
271154,35,0,2024-03-13T15:41:29.846Z,male_vraiment_flat_150.wav,0,False,967,69,F,5,0.355215,-126.286795
271154,35,0,2024-03-13T15:41:29.846Z,male_vraiment_flat_150.wav,0,False,967,69,F,6,0.426259,121.368949
271154,35,0,2024-03-13T15:41:29.846Z,male_vraiment_flat_31.wav,1,True,967,69,F,0,0.000000,-118.123136
271154,35,0,2024-03-13T15:41:29.846Z,male_vraiment_flat_31.wav,1,True,967,69,F,1,0.071043,-54.324615
271154,35,0,2024-03-13T15:41:29.846Z,male_vraiment_flat_31.wav,1,True,967,69,F,2,0.142086,-56.463303
271154,35,0,2024-03-13T15:41:29.846Z,male_vraiment_flat_31.wav,1,True,967,69,F,3,0.213129,65.563679
271154,35,0,2024-03-13T15:41:29.846Z,male_vraiment_flat_31.wav,1,True,967,69,F,4,0.284172,91.438424
271154,35,0,2024-03-13T15:41:29.846Z,male_vraiment_flat_31.wav,1,True,967,69,F,5,0.355215,-2.661707
271154,35,0,2024-03-13T15:41:29.846Z,male_vraiment_flat_31.wav,1,True,967,69,F,6,0.426259,-48.318391
271154,36,0,2024-03-13T15:41:29.846Z,male_vraiment_flat_72.wav,0,False,788,69,F,0,0.000000,-108.464526
271154,36,0,2024-03-13T15:41:29.846Z,male_vraiment_flat_72.wav,0,False,788,69,F,1,0.071043,78.835335
271154,36,0,2024-03-13T15:41:29.846Z,male_vraiment_flat_72.wav,0,False,788,69,F,2,0.142086,134.553834
271154,36,0,2024-03-13T15:41:29.846Z,male_vraiment_flat_72.wav,0,False,788,69,F,3,0.213129,5.396534
271154,36,0,2024-03-13T15:41:29.846Z,male_vraiment_flat_72.wav,0,False,788,69,F,4,0.284172,7.798595
271154,36,0,2024-03-13T15:41:29.846Z,male_vraiment_flat_72.wav,0,False,788,69,F,5,0.355215,65.510626
271154,36,0,2024-03-13T15:41:29.846Z,male_vraiment_flat_72.wav,0,False,788,69,F,6,0.426259,-103.798030
271154,36,0,2024-03-13T15:41:29.846Z,male_vraiment_flat_51.wav,1,True,788,69,F,0,0.000000,130.517111
271154,36,0,2024-03-13T15:41:29.846Z,male_vraiment_flat_51.wav,1,True,788,69,F,1,0.071043,138.869679
271154,36,0,2024-03-13T15:41:29.846Z,male_vraiment_flat_51.wav,1,True,788,69,F,2,0.142086,-34.276776
271154,36,0,2024-03-13T15:41:29.846Z,male_vraiment_flat_51.wav,1,True,788,69,F,3,0.213129,76.935346
271154,36,0,2024-03-13T15:41:29.846Z,male_vraiment_flat_51.wav,1,True,788,69,F,4,0.284172,-118.523911
271154,36,0,2024-03-13T15:41:29.846Z,male_vraiment_flat_51.wav,1,True,788,69,F,5,0.355215,-103.328524
271154,36,0,2024-03-13T15:41:29.846Z,male_vraiment_flat_51.wav,1,True,788,69,F,6,0.426259,-14.442096
271154,37,0,2024-03-13T15:41:29.846Z,male_vraiment_flat_188.wav,0,False,653,69,F,0,0.000000,-11.484944
271154,37,0,2024-03-13T15:41:29.846Z,male_vraiment_flat_188.wav,0,False,653,69,F,1,0.071043,-70.368872
271154,37,0,2024-03-13T15:41:29.846Z,male_vraiment_flat_188.wav,0,False,653,69,F,2,0.142086,-35.616146
271154,37,0,2024-03-13T15:41:29.846Z,male_vraiment_flat_188.wav,0,False,653,69,F,3,0.213129,0.109627
271154,37,0,2024-03-13T15:41:29.846Z,male_vraiment_flat_188.wav,0,False,653,69,F,4,0.284172,2.553157
271154,37,0,2024-03-13T15:41:29.846Z,male_vraiment_flat_188.wav,0,False,653,69,F,5,0.355215,-21.302793
271154,37,0,2024-03-13T15:41:29.846Z,male_vraiment_flat_188.wav,0,False,653,69,F,6,0.426259,-116.307336
271154,37,0,2024-03-13T15:41:29.846Z,male_vraiment_flat_87.wav,1,True,653,69,F,0,0.000000,123.541183
271154,37,0,2024-03-13T15:41:29.846Z,male_vraiment_flat_87.wav,1,True,653,69,F,1,0.071043,-79.641893
271154,37,0,2024-03-13T15:41:29.846Z,male_vraiment_flat_87.wav,1,True,653,69,F,2,0.142086,-129.036775
271154,37,0,2024-03-13T15:41:29.846Z,male_vraiment_flat_87.wav,1,True,653,69,F,3,0.213129,-12.372422
271154,37,0,2024-03-13T15:41:29.846Z,male_vraiment_flat_87.wav,1,True,653,69,F,4,0.284172,47.099802
271154,37,0,2024-03-13T15:41:29.846Z,male_vraiment_flat_87.wav,1,True,653,69,F,5,0.355215,133.796504
271154,37,0,2024-03-13T15:41:29.846Z,male_vraiment_flat_87.wav,1,True,653,69,F,6,0.426259,125.051187
271154,38,0,2024-03-13T15:41:29.846Z,male_vraiment_flat_139.wav,0,False,575,69,F,0,0.000000,-131.535185
271154,38,0,2024-03-13T15:41:29.846Z,male_vraiment_flat_139.wav,0,False,575,69,F,1,0.071043,-10.702864
271154,38,0,2024-03-13T15:41:29.846Z,male_vraiment_flat_139.wav,0,False,575,69,F,2,0.142086,-8.370040
271154,38,0,2024-03-13T15:41:29.846Z,male_vraiment_flat_139.wav,0,False,575,69,F,3,0.213129,83.706839
271154,38,0,2024-03-13T15:41:29.846Z,male_vraiment_flat_139.wav,0,False,575,69,F,4,0.284172,-28.836111
271154,38,0,2024-03-13T15:41:29.846Z,male_vraiment_flat_139.wav,0,False,575,69,F,5,0.355215,8.499607
271154,38,0,2024-03-13T15:41:29.846Z,male_vraiment_flat_139.wav,0,False,575,69,F,6,0.426259,-85.859123
271154,38,0,2024-03-13T15:41:29.846Z,male_vraiment_flat_180.wav,1,True,575,69,F,0,0.000000,-17.910938
271154,38,0,2024-03-13T15:41:29.846Z,male_vraiment_flat_180.wav,1,True,575,69,F,1,0.071043,24.825304
271154,38,0,2024-03-13T15:41:29.846Z,male_vraiment_flat_180.wav,1,True,575,69,F,2,0.142086,-141.305904
271154,38,0,2024-03-13T15:41:29.846Z,male_vraiment_flat_180.wav,1,True,575,69,F,3,0.213129,39.379988
271154,38,0,2024-03-13T15:41:29.846Z,male_vraiment_flat_180.wav,1,True,575,69,F,4,0.284172,-132.932424
271154,38,0,2024-03-13T15:41:29.846Z,male_vraiment_flat_180.wav,1,True,575,69,F,5,0.355215,-6.123363
271154,38,0,2024-03-13T15:41:29.846Z,male_vraiment_flat_180.wav,1,True,575,69,F,6,0.426259,-0.737662
271154,39,0,2024-03-13T15:41:29.846Z,male_vraiment_flat_147.wav,0,False,1229,69,F,0,0.000000,-109.572708
271154,39,0,2024-03-13T15:41:29.846Z,male_vraiment_flat_147.wav,0,False,1229,69,F,1,0.071043,-50.943910
271154,39,0,2024-03-13T15:41:29.846Z,male_vraiment_flat_147.wav,0,False,1229,69,F,2,0.142086,145.950821
271154,39,0,2024-03-13T15:41:29.846Z,male_vraiment_flat_147.wav,0,False,1229,69,F,3,0.213129,141.813801
271154,39,0,2024-03-13T15:41:29.846Z,male_vraiment_flat_147.wav,0,False,1229,69,F,4,0.284172,53.597843
271154,39,0,2024-03-13T15:41:29.846Z,male_vraiment_flat_147.wav,0,False,1229,69,F,5,0.355215,-21.310214
271154,39,0,2024-03-13T15:41:29.846Z,male_vraiment_flat_147.wav,0,False,1229,69,F,6,0.426259,-94.477021
271154,39,0,2024-03-13T15:41:29.846Z,male_vraiment_flat_37.wav,1,True,1229,69,F,0,0.000000,-50.449081
271154,39,0,2024-03-13T15:41:29.846Z,male_vraiment_flat_37.wav,1,True,1229,69,F,1,0.071043,28.423389
271154,39,0,2024-03-13T15:41:29.846Z,male_vraiment_flat_37.wav,1,True,1229,69,F,2,0.142086,-105.344692
271154,39,0,2024-03-13T15:41:29.846Z,male_vraiment_flat_37.wav,1,True,1229,69,F,3,0.213129,-99.811505
271154,39,0,2024-03-13T15:41:29.846Z,male_vraiment_flat_37.wav,1,True,1229,69,F,4,0.284172,142.698740
271154,39,0,2024-03-13T15:41:29.846Z,male_vraiment_flat_37.wav,1,True,1229,69,F,5,0.355215,-90.971946
271154,39,0,2024-03-13T15:41:29.846Z,male_vraiment_flat_37.wav,1,True,1229,69,F,6,0.426259,19.642948
271154,40,0,2024-03-13T15:41:29.846Z,male_vraiment_flat_17.wav,0,False,1115,69,F,0,0.000000,91.198655
271154,40,0,2024-03-13T15:41:29.846Z,male_vraiment_flat_17.wav,0,False,1115,69,F,1,0.071043,44.952547
271154,40,0,2024-03-13T15:41:29.846Z,male_vraiment_flat_17.wav,0,False,1115,69,F,2,0.142086,-82.852461
271154,40,0,2024-03-13T15:41:29.846Z,male_vraiment_flat_17.wav,0,False,1115,69,F,3,0.213129,-89.451177
271154,40,0,2024-03-13T15:41:29.846Z,male_vraiment_flat_17.wav,0,False,1115,69,F,4,0.284172,-149.534475
271154,40,0,2024-03-13T15:41:29.846Z,male_vraiment_flat_17.wav,0,False,1115,69,F,5,0.355215,-107.621144
271154,40,0,2024-03-13T15:41:29.846Z,male_vraiment_flat_17.wav,0,False,1115,69,F,6,0.426259,-93.535165
271154,40,0,2024-03-13T15:41:29.846Z,male_vraiment_flat_102.wav,1,True,1115,69,F,0,0.000000,-40.599677
271154,40,0,2024-03-13T15:41:29.846Z,male_vraiment_flat_102.wav,1,True,1115,69,F,1,0.071043,73.648850
271154,40,0,2024-03-13T15:41:29.846Z,male_vraiment_flat_102.wav,1,True,1115,69,F,2,0.142086,15.923898
271154,40,0,2024-03-13T15:41:29.846Z,male_vraiment_flat_102.wav,1,True,1115,69,F,3,0.213129,-109.098836
271154,40,0,2024-03-13T15:41:29.846Z,male_vraiment_flat_102.wav,1,True,1115,69,F,4,0.284172,134.536605
271154,40,0,2024-03-13T15:41:29.846Z,male_vraiment_flat_102.wav,1,True,1115,69,F,5,0.355215,127.784516
271154,40,0,2024-03-13T15:41:29.846Z,male_vraiment_flat_102.wav,1,True,1115,69,F,6,0.426259,-136.569602
271154,41,0,2024-03-13T15:41:29.846Z,male_vraiment_flat_97.wav,0,False,1004,69,F,0,0.000000,-82.753908
271154,41,0,2024-03-13T15:41:29.846Z,male_vraiment_flat_97.wav,0,False,1004,69,F,1,0.071043,-85.130238
271154,41,0,2024-03-13T15:41:29.846Z,male_vraiment_flat_97.wav,0,False,1004,69,F,2,0.142086,-72.001027
271154,41,0,2024-03-13T15:41:29.846Z,male_vraiment_flat_97.wav,0,False,1004,69,F,3,0.213129,-75.442204
271154,41,0,2024-03-13T15:41:29.846Z,male_vraiment_flat_97.wav,0,False,1004,69,F,4,0.284172,147.061792
271154,41,0,2024-03-13T15:41:29.846Z,male_vraiment_flat_97.wav,0,False,1004,69,F,5,0.355215,126.876511
271154,41,0,2024-03-13T15:41:29.846Z,male_vraiment_flat_97.wav,0,False,1004,69,F,6,0.426259,96.208887
271154,41,0,2024-03-13T15:41:29.846Z,male_vraiment_flat_138.wav,1,True,1004,69,F,0,0.000000,-29.536298
271154,41,0,2024-03-13T15:41:29.846Z,male_vraiment_flat_138.wav,1,True,1004,69,F,1,0.071043,90.685935
271154,41,0,2024-03-13T15:41:29.846Z,male_vraiment_flat_138.wav,1,True,1004,69,F,2,0.142086,-77.044346
271154,41,0,2024-03-13T15:41:29.846Z,male_vraiment_flat_138.wav,1,True,1004,69,F,3,0.213129,-75.264885
271154,41,0,2024-03-13T15:41:29.846Z,male_vraiment_flat_138.wav,1,True,1004,69,F,4,0.284172,-129.490236
271154,41,0,2024-03-13T15:41:29.846Z,male_vraiment_flat_138.wav,1,True,1004,69,F,5,0.355215,-48.940612
271154,41,0,2024-03-13T15:41:29.846Z,male_vraiment_flat_138.wav,1,True,1004,69,F,6,0.426259,-95.647001
271154,42,0,2024-03-13T15:41:29.846Z,male_vraiment_flat_65.wav,0,False,535,69,F,0,0.000000,104.278510
271154,42,0,2024-03-13T15:41:29.846Z,male_vraiment_flat_65.wav,0,False,535,69,F,1,0.071043,120.742750
271154,42,0,2024-03-13T15:41:29.846Z,male_vraiment_flat_65.wav,0,False,535,69,F,2,0.142086,116.963717
271154,42,0,2024-03-13T15:41:29.846Z,male_vraiment_flat_65.wav,0,False,535,69,F,3,0.213129,-30.167489
271154,42,0,2024-03-13T15:41:29.846Z,male_vraiment_flat_65.wav,0,False,535,69,F,4,0.284172,58.482575
271154,42,0,2024-03-13T15:41:29.846Z,male_vraiment_flat_65.wav,0,False,535,69,F,5,0.355215,-35.240720
271154,42,0,2024-03-13T15:41:29.846Z,male_vraiment_flat_65.wav,0,False,535,69,F,6,0.426259,-49.851341
271154,42,0,2024-03-13T15:41:29.846Z,male_vraiment_flat_161.wav,1,True,535,69,F,0,0.000000,108.108554
271154,42,0,2024-03-13T15:41:29.846Z,male_vraiment_flat_161.wav,1,True,535,69,F,1,0.071043,47.804173
271154,42,0,2024-03-13T15:41:29.846Z,male_vraiment_flat_161.wav,1,True,535,69,F,2,0.142086,-38.721105
271154,42,0,2024-03-13T15:41:29.846Z,male_vraiment_flat_161.wav,1,True,535,69,F,3,0.213129,108.595174
271154,42,0,2024-03-13T15:41:29.846Z,male_vraiment_flat_161.wav,1,True,535,69,F,4,0.284172,94.751032
271154,42,0,2024-03-13T15:41:29.846Z,male_vraiment_flat_161.wav,1,True,535,69,F,5,0.355215,-22.399732
271154,42,0,2024-03-13T15:41:29.846Z,male_vraiment_flat_161.wav,1,True,535,69,F,6,0.426259,88.139884
271154,43,0,2024-03-13T15:41:29.846Z,male_vraiment_flat_153.wav,0,False,3949,69,F,0,0.000000,-62.105340
271154,43,0,2024-03-13T15:41:29.846Z,male_vraiment_flat_153.wav,0,False,3949,69,F,1,0.071043,-52.997588
271154,43,0,2024-03-13T15:41:29.846Z,male_vraiment_flat_153.wav,0,False,3949,69,F,2,0.142086,-76.077591
271154,43,0,2024-03-13T15:41:29.846Z,male_vraiment_flat_153.wav,0,False,3949,69,F,3,0.213129,-18.807121
271154,43,0,2024-03-13T15:41:29.846Z,male_vraiment_flat_153.wav,0,False,3949,69,F,4,0.284172,-115.396331
271154,43,0,2024-03-13T15:41:29.846Z,male_vraiment_flat_153.wav,0,False,3949,69,F,5,0.355215,-128.292537
271154,43,0,2024-03-13T15:41:29.846Z,male_vraiment_flat_153.wav,0,False,3949,69,F,6,0.426259,-78.650880
271154,43,0,2024-03-13T15:41:29.846Z,male_vraiment_flat_168.wav,1,True,3949,69,F,0,0.000000,20.996757
271154,43,0,2024-03-13T15:41:29.846Z,male_vraiment_flat_168.wav,1,True,3949,69,F,1,0.071043,53.221671
271154,43,0,2024-03-13T15:41:29.846Z,male_vraiment_flat_168.wav,1,True,3949,69,F,2,0.142086,15.731623
271154,43,0,2024-03-13T15:41:29.846Z,male_vraiment_flat_168.wav,1,True,3949,69,F,3,0.213129,99.382807
271154,43,0,2024-03-13T15:41:29.846Z,male_vraiment_flat_168.wav,1,True,3949,69,F,4,0.284172,-57.914754
271154,43,0,2024-03-13T15:41:29.846Z,male_vraiment_flat_168.wav,1,True,3949,69,F,5,0.355215,26.961730
271154,43,0,2024-03-13T15:41:29.846Z,male_vraiment_flat_168.wav,1,True,3949,69,F,6,0.426259,-63.149674
271154,44,0,2024-03-13T15:41:29.846Z,male_vraiment_flat_92.wav,0,False,536,69,F,0,0.000000,46.869845
271154,44,0,2024-03-13T15:41:29.846Z,male_vraiment_flat_92.wav,0,False,536,69,F,1,0.071043,-22.303854
271154,44,0,2024-03-13T15:41:29.846Z,male_vraiment_flat_92.wav,0,False,536,69,F,2,0.142086,54.218629
271154,44,0,2024-03-13T15:41:29.846Z,male_vraiment_flat_92.wav,0,False,536,69,F,3,0.213129,-37.706610
271154,44,0,2024-03-13T15:41:29.846Z,male_vraiment_flat_92.wav,0,False,536,69,F,4,0.284172,48.467677
271154,44,0,2024-03-13T15:41:29.846Z,male_vraiment_flat_92.wav,0,False,536,69,F,5,0.355215,-36.671620
271154,44,0,2024-03-13T15:41:29.846Z,male_vraiment_flat_92.wav,0,False,536,69,F,6,0.426259,-103.238186
271154,44,0,2024-03-13T15:41:29.846Z,male_vraiment_flat_146.wav,1,True,536,69,F,0,0.000000,92.610651
271154,44,0,2024-03-13T15:41:29.846Z,male_vraiment_flat_146.wav,1,True,536,69,F,1,0.071043,40.250954
271154,44,0,2024-03-13T15:41:29.846Z,male_vraiment_flat_146.wav,1,True,536,69,F,2,0.142086,99.988333
271154,44,0,2024-03-13T15:41:29.846Z,male_vraiment_flat_146.wav,1,True,536,69,F,3,0.213129,115.543405
271154,44,0,2024-03-13T15:41:29.846Z,male_vraiment_flat_146.wav,1,True,536,69,F,4,0.284172,-3.607960
271154,44,0,2024-03-13T15:41:29.846Z,male_vraiment_flat_146.wav,1,True,536,69,F,5,0.355215,-91.494225
271154,44,0,2024-03-13T15:41:29.846Z,male_vraiment_flat_146.wav,1,True,536,69,F,6,0.426259,-109.708123
271154,45,0,2024-03-13T15:41:29.846Z,male_vraiment_flat_185.wav,0,False,1780,69,F,0,0.000000,7.537788
271154,45,0,2024-03-13T15:41:29.846Z,male_vraiment_flat_185.wav,0,False,1780,69,F,1,0.071043,138.761382
271154,45,0,2024-03-13T15:41:29.846Z,male_vraiment_flat_185.wav,0,False,1780,69,F,2,0.142086,88.970452
271154,45,0,2024-03-13T15:41:29.846Z,male_vraiment_flat_185.wav,0,False,1780,69,F,3,0.213129,-106.980409
271154,45,0,2024-03-13T15:41:29.846Z,male_vraiment_flat_185.wav,0,False,1780,69,F,4,0.284172,-72.334155
271154,45,0,2024-03-13T15:41:29.846Z,male_vraiment_flat_185.wav,0,False,1780,69,F,5,0.355215,87.356426
271154,45,0,2024-03-13T15:41:29.846Z,male_vraiment_flat_185.wav,0,False,1780,69,F,6,0.426259,90.917936
271154,45,0,2024-03-13T15:41:29.846Z,male_vraiment_flat_142.wav,1,True,1780,69,F,0,0.000000,129.881009
271154,45,0,2024-03-13T15:41:29.846Z,male_vraiment_flat_142.wav,1,True,1780,69,F,1,0.071043,116.596688
271154,45,0,2024-03-13T15:41:29.846Z,male_vraiment_flat_142.wav,1,True,1780,69,F,2,0.142086,48.203333
271154,45,0,2024-03-13T15:41:29.846Z,male_vraiment_flat_142.wav,1,True,1780,69,F,3,0.213129,100.883154
271154,45,0,2024-03-13T15:41:29.846Z,male_vraiment_flat_142.wav,1,True,1780,69,F,4,0.284172,-39.625904
271154,45,0,2024-03-13T15:41:29.846Z,male_vraiment_flat_142.wav,1,True,1780,69,F,5,0.355215,-141.802649
271154,45,0,2024-03-13T15:41:29.846Z,male_vraiment_flat_142.wav,1,True,1780,69,F,6,0.426259,58.691582
271154,46,0,2024-03-13T15:45:42.282Z,male_vraiment_flat_94.wav,0,False,2184,69,F,0,0.000000,-0.652128
271154,46,0,2024-03-13T15:45:42.282Z,male_vraiment_flat_94.wav,0,False,2184,69,F,1,0.071043,97.860897
271154,46,0,2024-03-13T15:45:42.282Z,male_vraiment_flat_94.wav,0,False,2184,69,F,2,0.142086,48.932214
271154,46,0,2024-03-13T15:45:42.282Z,male_vraiment_flat_94.wav,0,False,2184,69,F,3,0.213129,-23.097711
271154,46,0,2024-03-13T15:45:42.282Z,male_vraiment_flat_94.wav,0,False,2184,69,F,4,0.284172,-47.481676
271154,46,0,2024-03-13T15:45:42.282Z,male_vraiment_flat_94.wav,0,False,2184,69,F,5,0.355215,-120.450621
271154,46,0,2024-03-13T15:45:42.282Z,male_vraiment_flat_94.wav,0,False,2184,69,F,6,0.426259,-116.887604
271154,46,0,2024-03-13T15:45:42.282Z,male_vraiment_flat_24.wav,1,True,2184,69,F,0,0.000000,-144.276814
271154,46,0,2024-03-13T15:45:42.282Z,male_vraiment_flat_24.wav,1,True,2184,69,F,1,0.071043,-59.436611
271154,46,0,2024-03-13T15:45:42.282Z,male_vraiment_flat_24.wav,1,True,2184,69,F,2,0.142086,45.565590
271154,46,0,2024-03-13T15:45:42.282Z,male_vraiment_flat_24.wav,1,True,2184,69,F,3,0.213129,19.626340
271154,46,0,2024-03-13T15:45:42.282Z,male_vraiment_flat_24.wav,1,True,2184,69,F,4,0.284172,-127.586662
271154,46,0,2024-03-13T15:45:42.282Z,male_vraiment_flat_24.wav,1,True,2184,69,F,5,0.355215,59.214853
271154,46,0,2024-03-13T15:45:42.282Z,male_vraiment_flat_24.wav,1,True,2184,69,F,6,0.426259,-70.996219
271154,47,0,2024-03-13T15:45:42.282Z,male_vraiment_flat_77.wav,0,True,6543,69,F,0,0.000000,-123.489900
271154,47,0,2024-03-13T15:45:42.282Z,male_vraiment_flat_77.wav,0,True,6543,69,F,1,0.071043,8.804262
271154,47,0,2024-03-13T15:45:42.282Z,male_vraiment_flat_77.wav,0,True,6543,69,F,2,0.142086,-15.205517
271154,47,0,2024-03-13T15:45:42.282Z,male_vraiment_flat_77.wav,0,True,6543,69,F,3,0.213129,7.550940
271154,47,0,2024-03-13T15:45:42.282Z,male_vraiment_flat_77.wav,0,True,6543,69,F,4,0.284172,97.551926
271154,47,0,2024-03-13T15:45:42.282Z,male_vraiment_flat_77.wav,0,True,6543,69,F,5,0.355215,56.352460
271154,47,0,2024-03-13T15:45:42.282Z,male_vraiment_flat_77.wav,0,True,6543,69,F,6,0.426259,-146.779345
271154,47,0,2024-03-13T15:45:42.282Z,male_vraiment_flat_47.wav,1,False,6543,69,F,0,0.000000,11.243959
271154,47,0,2024-03-13T15:45:42.282Z,male_vraiment_flat_47.wav,1,False,6543,69,F,1,0.071043,-131.885563
271154,47,0,2024-03-13T15:45:42.282Z,male_vraiment_flat_47.wav,1,False,6543,69,F,2,0.142086,22.720944
271154,47,0,2024-03-13T15:45:42.282Z,male_vraiment_flat_47.wav,1,False,6543,69,F,3,0.213129,-98.981706
271154,47,0,2024-03-13T15:45:42.282Z,male_vraiment_flat_47.wav,1,False,6543,69,F,4,0.284172,-117.392555
271154,47,0,2024-03-13T15:45:42.282Z,male_vraiment_flat_47.wav,1,False,6543,69,F,5,0.355215,-7.362816
271154,47,0,2024-03-13T15:45:42.282Z,male_vraiment_flat_47.wav,1,False,6543,69,F,6,0.426259,149.963589
271154,48,0,2024-03-13T15:45:42.282Z,male_vraiment_flat_22.wav,0,False,6386,69,F,0,0.000000,131.811490
271154,48,0,2024-03-13T15:45:42.282Z,male_vraiment_flat_22.wav,0,False,6386,69,F,1,0.071043,-17.710289
271154,48,0,2024-03-13T15:45:42.282Z,male_vraiment_flat_22.wav,0,False,6386,69,F,2,0.142086,-106.310722
271154,48,0,2024-03-13T15:45:42.282Z,male_vraiment_flat_22.wav,0,False,6386,69,F,3,0.213129,-118.997283
271154,48,0,2024-03-13T15:45:42.282Z,male_vraiment_flat_22.wav,0,False,6386,69,F,4,0.284172,-44.158651
271154,48,0,2024-03-13T15:45:42.282Z,male_vraiment_flat_22.wav,0,False,6386,69,F,5,0.355215,-65.057904
271154,48,0,2024-03-13T15:45:42.282Z,male_vraiment_flat_22.wav,0,False,6386,69,F,6,0.426259,142.657358
271154,48,0,2024-03-13T15:45:42.282Z,male_vraiment_flat_109.wav,1,True,6386,69,F,0,0.000000,47.448278
271154,48,0,2024-03-13T15:45:42.282Z,male_vraiment_flat_109.wav,1,True,6386,69,F,1,0.071043,97.426800
271154,48,0,2024-03-13T15:45:42.282Z,male_vraiment_flat_109.wav,1,True,6386,69,F,2,0.142086,-100.706472
271154,48,0,2024-03-13T15:45:42.282Z,male_vraiment_flat_109.wav,1,True,6386,69,F,3,0.213129,-21.542212
271154,48,0,2024-03-13T15:45:42.282Z,male_vraiment_flat_109.wav,1,True,6386,69,F,4,0.284172,-35.096541
271154,48,0,2024-03-13T15:45:42.282Z,male_vraiment_flat_109.wav,1,True,6386,69,F,5,0.355215,33.270062
271154,48,0,2024-03-13T15:45:42.282Z,male_vraiment_flat_109.wav,1,True,6386,69,F,6,0.426259,35.804127
271154,49,0,2024-03-13T15:45:42.282Z,male_vraiment_flat_105.wav,0,True,1864,69,F,0,0.000000,125.556012
271154,49,0,2024-03-13T15:45:42.282Z,male_vraiment_flat_105.wav,0,True,1864,69,F,1,0.071043,102.885047
271154,49,0,2024-03-13T15:45:42.282Z,male_vraiment_flat_105.wav,0,True,1864,69,F,2,0.142086,-23.318884
271154,49,0,2024-03-13T15:45:42.282Z,male_vraiment_flat_105.wav,0,True,1864,69,F,3,0.213129,96.270063
271154,49,0,2024-03-13T15:45:42.282Z,male_vraiment_flat_105.wav,0,True,1864,69,F,4,0.284172,-32.661499
271154,49,0,2024-03-13T15:45:42.282Z,male_vraiment_flat_105.wav,0,True,1864,69,F,5,0.355215,-7.829717
271154,49,0,2024-03-13T15:45:42.282Z,male_vraiment_flat_105.wav,0,True,1864,69,F,6,0.426259,-13.047753
271154,49,0,2024-03-13T15:45:42.282Z,male_vraiment_flat_93.wav,1,False,1864,69,F,0,0.000000,89.760217
271154,49,0,2024-03-13T15:45:42.282Z,male_vraiment_flat_93.wav,1,False,1864,69,F,1,0.071043,18.591855
271154,49,0,2024-03-13T15:45:42.282Z,male_vraiment_flat_93.wav,1,False,1864,69,F,2,0.142086,63.582537
271154,49,0,2024-03-13T15:45:42.282Z,male_vraiment_flat_93.wav,1,False,1864,69,F,3,0.213129,147.491611
271154,49,0,2024-03-13T15:45:42.282Z,male_vraiment_flat_93.wav,1,False,1864,69,F,4,0.284172,-113.128196
271154,49,0,2024-03-13T15:45:42.282Z,male_vraiment_flat_93.wav,1,False,1864,69,F,5,0.355215,12.197118
271154,49,0,2024-03-13T15:45:42.282Z,male_vraiment_flat_93.wav,1,False,1864,69,F,6,0.426259,-36.730637
271154,50,1,2024-03-13T15:45:42.282Z,male_vraiment_flat_194.wav,0,True,6429,69,F,0,0.000000,104.124735
271154,50,1,2024-03-13T15:45:42.282Z,male_vraiment_flat_194.wav,0,True,6429,69,F,1,0.071043,-92.067392
271154,50,1,2024-03-13T15:45:42.282Z,male_vraiment_flat_194.wav,0,True,6429,69,F,2,0.142086,-108.808255
271154,50,1,2024-03-13T15:45:42.282Z,male_vraiment_flat_194.wav,0,True,6429,69,F,3,0.213129,99.267416
271154,50,1,2024-03-13T15:45:42.282Z,male_vraiment_flat_194.wav,0,True,6429,69,F,4,0.284172,-26.685302
271154,50,1,2024-03-13T15:45:42.282Z,male_vraiment_flat_194.wav,0,True,6429,69,F,5,0.355215,97.824367
271154,50,1,2024-03-13T15:45:42.282Z,male_vraiment_flat_194.wav,0,True,6429,69,F,6,0.426259,-69.402109
271154,50,1,2024-03-13T15:45:42.282Z,male_vraiment_flat_33.wav,1,False,6429,69,F,0,0.000000,77.429006
271154,50,1,2024-03-13T15:45:42.282Z,male_vraiment_flat_33.wav,1,False,6429,69,F,1,0.071043,25.170622
271154,50,1,2024-03-13T15:45:42.282Z,male_vraiment_flat_33.wav,1,False,6429,69,F,2,0.142086,-65.854422
271154,50,1,2024-03-13T15:45:42.282Z,male_vraiment_flat_33.wav,1,False,6429,69,F,3,0.213129,106.380035
271154,50,1,2024-03-13T15:45:42.282Z,male_vraiment_flat_33.wav,1,False,6429,69,F,4,0.284172,126.948212
271154,50,1,2024-03-13T15:45:42.282Z,male_vraiment_flat_33.wav,1,False,6429,69,F,5,0.355215,88.675782
271154,50,1,2024-03-13T15:45:42.282Z,male_vraiment_flat_33.wav,1,False,6429,69,F,6,0.426259,-129.822255
271154,51,1,2024-03-13T15:45:42.282Z,male_vraiment_flat_149.wav,0,False,2422,69,F,0,0.000000,17.402596
271154,51,1,2024-03-13T15:45:42.282Z,male_vraiment_flat_149.wav,0,False,2422,69,F,1,0.071043,-44.390985
271154,51,1,2024-03-13T15:45:42.282Z,male_vraiment_flat_149.wav,0,False,2422,69,F,2,0.142086,-32.370244
271154,51,1,2024-03-13T15:45:42.282Z,male_vraiment_flat_149.wav,0,False,2422,69,F,3,0.213129,33.896100
271154,51,1,2024-03-13T15:45:42.282Z,male_vraiment_flat_149.wav,0,False,2422,69,F,4,0.284172,130.098177
271154,51,1,2024-03-13T15:45:42.282Z,male_vraiment_flat_149.wav,0,False,2422,69,F,5,0.355215,-117.346579
271154,51,1,2024-03-13T15:45:42.282Z,male_vraiment_flat_149.wav,0,False,2422,69,F,6,0.426259,65.375118
271154,51,1,2024-03-13T15:45:42.282Z,male_vraiment_flat_154.wav,1,True,2422,69,F,0,0.000000,-56.341735
271154,51,1,2024-03-13T15:45:42.282Z,male_vraiment_flat_154.wav,1,True,2422,69,F,1,0.071043,15.133004
271154,51,1,2024-03-13T15:45:42.282Z,male_vraiment_flat_154.wav,1,True,2422,69,F,2,0.142086,67.588138
271154,51,1,2024-03-13T15:45:42.282Z,male_vraiment_flat_154.wav,1,True,2422,69,F,3,0.213129,4.827765
271154,51,1,2024-03-13T15:45:42.282Z,male_vraiment_flat_154.wav,1,True,2422,69,F,4,0.284172,-119.124529
271154,51,1,2024-03-13T15:45:42.282Z,male_vraiment_flat_154.wav,1,True,2422,69,F,5,0.355215,137.124750
271154,51,1,2024-03-13T15:45:42.282Z,male_vraiment_flat_154.wav,1,True,2422,69,F,6,0.426259,-61.627299
271154,52,1,2024-03-13T15:45:42.282Z,male_vraiment_flat_73.wav,0,True,1804,69,F,0,0.000000,116.322519
271154,52,1,2024-03-13T15:45:42.282Z,male_vraiment_flat_73.wav,0,True,1804,69,F,1,0.071043,-36.491811
271154,52,1,2024-03-13T15:45:42.282Z,male_vraiment_flat_73.wav,0,True,1804,69,F,2,0.142086,56.992902
271154,52,1,2024-03-13T15:45:42.282Z,male_vraiment_flat_73.wav,0,True,1804,69,F,3,0.213129,-102.405714
271154,52,1,2024-03-13T15:45:42.282Z,male_vraiment_flat_73.wav,0,True,1804,69,F,4,0.284172,18.027278
271154,52,1,2024-03-13T15:45:42.282Z,male_vraiment_flat_73.wav,0,True,1804,69,F,5,0.355215,92.986932
271154,52,1,2024-03-13T15:45:42.282Z,male_vraiment_flat_73.wav,0,True,1804,69,F,6,0.426259,-12.148577
271154,52,1,2024-03-13T15:45:42.282Z,male_vraiment_flat_157.wav,1,False,1804,69,F,0,0.000000,20.473057
271154,52,1,2024-03-13T15:45:42.282Z,male_vraiment_flat_157.wav,1,False,1804,69,F,1,0.071043,-103.427341
271154,52,1,2024-03-13T15:45:42.282Z,male_vraiment_flat_157.wav,1,False,1804,69,F,2,0.142086,-58.670290
271154,52,1,2024-03-13T15:45:42.282Z,male_vraiment_flat_157.wav,1,False,1804,69,F,3,0.213129,-88.181786
271154,52,1,2024-03-13T15:45:42.282Z,male_vraiment_flat_157.wav,1,False,1804,69,F,4,0.284172,-145.892431
271154,52,1,2024-03-13T15:45:42.282Z,male_vraiment_flat_157.wav,1,False,1804,69,F,5,0.355215,-121.197130
271154,52,1,2024-03-13T15:45:42.282Z,male_vraiment_flat_157.wav,1,False,1804,69,F,6,0.426259,3.215116
271154,53,1,2024-03-13T15:45:42.282Z,male_vraiment_flat_198.wav,0,True,3957,69,F,0,0.000000,-103.630506
271154,53,1,2024-03-13T15:45:42.282Z,male_vraiment_flat_198.wav,0,True,3957,69,F,1,0.071043,-84.165473
271154,53,1,2024-03-13T15:45:42.282Z,male_vraiment_flat_198.wav,0,True,3957,69,F,2,0.142086,-14.577431
271154,53,1,2024-03-13T15:45:42.282Z,male_vraiment_flat_198.wav,0,True,3957,69,F,3,0.213129,28.146235
271154,53,1,2024-03-13T15:45:42.282Z,male_vraiment_flat_198.wav,0,True,3957,69,F,4,0.284172,-80.575165
271154,53,1,2024-03-13T15:45:42.282Z,male_vraiment_flat_198.wav,0,True,3957,69,F,5,0.355215,-32.118902
271154,53,1,2024-03-13T15:45:42.282Z,male_vraiment_flat_198.wav,0,True,3957,69,F,6,0.426259,78.303148
271154,53,1,2024-03-13T15:45:42.282Z,male_vraiment_flat_100.wav,1,False,3957,69,F,0,0.000000,43.543409
271154,53,1,2024-03-13T15:45:42.282Z,male_vraiment_flat_100.wav,1,False,3957,69,F,1,0.071043,103.015481
271154,53,1,2024-03-13T15:45:42.282Z,male_vraiment_flat_100.wav,1,False,3957,69,F,2,0.142086,72.119204
271154,53,1,2024-03-13T15:45:42.282Z,male_vraiment_flat_100.wav,1,False,3957,69,F,3,0.213129,-134.244223
271154,53,1,2024-03-13T15:45:42.282Z,male_vraiment_flat_100.wav,1,False,3957,69,F,4,0.284172,118.896008
271154,53,1,2024-03-13T15:45:42.282Z,male_vraiment_flat_100.wav,1,False,3957,69,F,5,0.355215,-31.136245
271154,53,1,2024-03-13T15:45:42.282Z,male_vraiment_flat_100.wav,1,False,3957,69,F,6,0.426259,41.834207
271154,54,1,2024-03-13T15:45:42.282Z,male_vraiment_flat_21.wav,0,False,1655,69,F,0,0.000000,84.422922
271154,54,1,2024-03-13T15:45:42.282Z,male_vraiment_flat_21.wav,0,False,1655,69,F,1,0.071043,34.734306
271154,54,1,2024-03-13T15:45:42.282Z,male_vraiment_flat_21.wav,0,False,1655,69,F,2,0.142086,84.348012
271154,54,1,2024-03-13T15:45:42.282Z,male_vraiment_flat_21.wav,0,False,1655,69,F,3,0.213129,-112.005491
271154,54,1,2024-03-13T15:45:42.282Z,male_vraiment_flat_21.wav,0,False,1655,69,F,4,0.284172,147.407394
271154,54,1,2024-03-13T15:45:42.282Z,male_vraiment_flat_21.wav,0,False,1655,69,F,5,0.355215,-6.622355
271154,54,1,2024-03-13T15:45:42.282Z,male_vraiment_flat_21.wav,0,False,1655,69,F,6,0.426259,125.674103
271154,54,1,2024-03-13T15:45:42.282Z,male_vraiment_flat_4.wav,1,True,1655,69,F,0,0.000000,98.226066
271154,54,1,2024-03-13T15:45:42.282Z,male_vraiment_flat_4.wav,1,True,1655,69,F,1,0.071043,119.322928
271154,54,1,2024-03-13T15:45:42.282Z,male_vraiment_flat_4.wav,1,True,1655,69,F,2,0.142086,-139.339853
271154,54,1,2024-03-13T15:45:42.282Z,male_vraiment_flat_4.wav,1,True,1655,69,F,3,0.213129,-46.932317
271154,54,1,2024-03-13T15:45:42.282Z,male_vraiment_flat_4.wav,1,True,1655,69,F,4,0.284172,-13.288809
271154,54,1,2024-03-13T15:45:42.282Z,male_vraiment_flat_4.wav,1,True,1655,69,F,5,0.355215,94.861826
271154,54,1,2024-03-13T15:45:42.282Z,male_vraiment_flat_4.wav,1,True,1655,69,F,6,0.426259,-84.397607
271154,55,1,2024-03-13T15:45:42.282Z,male_vraiment_flat_136.wav,0,True,1469,69,F,0,0.000000,-47.296851
271154,55,1,2024-03-13T15:45:42.282Z,male_vraiment_flat_136.wav,0,True,1469,69,F,1,0.071043,-58.430070
271154,55,1,2024-03-13T15:45:42.282Z,male_vraiment_flat_136.wav,0,True,1469,69,F,2,0.142086,-0.935981
271154,55,1,2024-03-13T15:45:42.282Z,male_vraiment_flat_136.wav,0,True,1469,69,F,3,0.213129,-128.690729
271154,55,1,2024-03-13T15:45:42.282Z,male_vraiment_flat_136.wav,0,True,1469,69,F,4,0.284172,49.658863
271154,55,1,2024-03-13T15:45:42.282Z,male_vraiment_flat_136.wav,0,True,1469,69,F,5,0.355215,66.569477
271154,55,1,2024-03-13T15:45:42.282Z,male_vraiment_flat_136.wav,0,True,1469,69,F,6,0.426259,92.598952
271154,55,1,2024-03-13T15:45:42.282Z,male_vraiment_flat_183.wav,1,False,1469,69,F,0,0.000000,102.527130
271154,55,1,2024-03-13T15:45:42.282Z,male_vraiment_flat_183.wav,1,False,1469,69,F,1,0.071043,114.037020
271154,55,1,2024-03-13T15:45:42.282Z,male_vraiment_flat_183.wav,1,False,1469,69,F,2,0.142086,-45.723055
271154,55,1,2024-03-13T15:45:42.282Z,male_vraiment_flat_183.wav,1,False,1469,69,F,3,0.213129,-109.210749
271154,55,1,2024-03-13T15:45:42.282Z,male_vraiment_flat_183.wav,1,False,1469,69,F,4,0.284172,-29.266312
271154,55,1,2024-03-13T15:45:42.282Z,male_vraiment_flat_183.wav,1,False,1469,69,F,5,0.355215,-77.798514
271154,55,1,2024-03-13T15:45:42.282Z,male_vraiment_flat_183.wav,1,False,1469,69,F,6,0.426259,-133.179439
271154,56,1,2024-03-13T15:45:42.282Z,male_vraiment_flat_29.wav,0,True,1529,69,F,0,0.000000,78.626852
271154,56,1,2024-03-13T15:45:42.282Z,male_vraiment_flat_29.wav,0,True,1529,69,F,1,0.071043,124.163952
271154,56,1,2024-03-13T15:45:42.282Z,male_vraiment_flat_29.wav,0,True,1529,69,F,2,0.142086,-62.289103
271154,56,1,2024-03-13T15:45:42.282Z,male_vraiment_flat_29.wav,0,True,1529,69,F,3,0.213129,54.806982
271154,56,1,2024-03-13T15:45:42.282Z,male_vraiment_flat_29.wav,0,True,1529,69,F,4,0.284172,75.809549
271154,56,1,2024-03-13T15:45:42.282Z,male_vraiment_flat_29.wav,0,True,1529,69,F,5,0.355215,87.233703
271154,56,1,2024-03-13T15:45:42.282Z,male_vraiment_flat_29.wav,0,True,1529,69,F,6,0.426259,-95.916715
271154,56,1,2024-03-13T15:45:42.282Z,male_vraiment_flat_36.wav,1,False,1529,69,F,0,0.000000,-33.837960
271154,56,1,2024-03-13T15:45:42.282Z,male_vraiment_flat_36.wav,1,False,1529,69,F,1,0.071043,102.134309
271154,56,1,2024-03-13T15:45:42.282Z,male_vraiment_flat_36.wav,1,False,1529,69,F,2,0.142086,100.949665
271154,56,1,2024-03-13T15:45:42.282Z,male_vraiment_flat_36.wav,1,False,1529,69,F,3,0.213129,77.352428
271154,56,1,2024-03-13T15:45:42.282Z,male_vraiment_flat_36.wav,1,False,1529,69,F,4,0.284172,-1.995321
271154,56,1,2024-03-13T15:45:42.282Z,male_vraiment_flat_36.wav,1,False,1529,69,F,5,0.355215,-13.382838
271154,56,1,2024-03-13T15:45:42.282Z,male_vraiment_flat_36.wav,1,False,1529,69,F,6,0.426259,-42.807835
271154,57,1,2024-03-13T15:45:42.282Z,male_vraiment_flat_191.wav,0,True,2905,69,F,0,0.000000,-3.321474
271154,57,1,2024-03-13T15:45:42.282Z,male_vraiment_flat_191.wav,0,True,2905,69,F,1,0.071043,110.638678
271154,57,1,2024-03-13T15:45:42.282Z,male_vraiment_flat_191.wav,0,True,2905,69,F,2,0.142086,142.170563
271154,57,1,2024-03-13T15:45:42.282Z,male_vraiment_flat_191.wav,0,True,2905,69,F,3,0.213129,-110.761685
271154,57,1,2024-03-13T15:45:42.282Z,male_vraiment_flat_191.wav,0,True,2905,69,F,4,0.284172,23.931067
271154,57,1,2024-03-13T15:45:42.282Z,male_vraiment_flat_191.wav,0,True,2905,69,F,5,0.355215,-28.623113
271154,57,1,2024-03-13T15:45:42.282Z,male_vraiment_flat_191.wav,0,True,2905,69,F,6,0.426259,68.073722
271154,57,1,2024-03-13T15:45:42.282Z,male_vraiment_flat_129.wav,1,False,2905,69,F,0,0.000000,121.236122
271154,57,1,2024-03-13T15:45:42.282Z,male_vraiment_flat_129.wav,1,False,2905,69,F,1,0.071043,8.396736
271154,57,1,2024-03-13T15:45:42.282Z,male_vraiment_flat_129.wav,1,False,2905,69,F,2,0.142086,-17.691364
271154,57,1,2024-03-13T15:45:42.282Z,male_vraiment_flat_129.wav,1,False,2905,69,F,3,0.213129,73.711335
271154,57,1,2024-03-13T15:45:42.282Z,male_vraiment_flat_129.wav,1,False,2905,69,F,4,0.284172,-117.430618
271154,57,1,2024-03-13T15:45:42.282Z,male_vraiment_flat_129.wav,1,False,2905,69,F,5,0.355215,-12.936057
271154,57,1,2024-03-13T15:45:42.282Z,male_vraiment_flat_129.wav,1,False,2905,69,F,6,0.426259,-63.494285
271154,58,1,2024-03-13T15:45:42.282Z,male_vraiment_flat_86.wav,0,True,1875,69,F,0,0.000000,85.260205
271154,58,1,2024-03-13T15:45:42.282Z,male_vraiment_flat_86.wav,0,True,1875,69,F,1,0.071043,-4.684566
271154,58,1,2024-03-13T15:45:42.282Z,male_vraiment_flat_86.wav,0,True,1875,69,F,2,0.142086,133.406345
271154,58,1,2024-03-13T15:45:42.282Z,male_vraiment_flat_86.wav,0,True,1875,69,F,3,0.213129,110.454503
271154,58,1,2024-03-13T15:45:42.282Z,male_vraiment_flat_86.wav,0,True,1875,69,F,4,0.284172,38.373367
271154,58,1,2024-03-13T15:45:42.282Z,male_vraiment_flat_86.wav,0,True,1875,69,F,5,0.355215,75.992097
271154,58,1,2024-03-13T15:45:42.282Z,male_vraiment_flat_86.wav,0,True,1875,69,F,6,0.426259,-87.651019
271154,58,1,2024-03-13T15:45:42.282Z,male_vraiment_flat_30.wav,1,False,1875,69,F,0,0.000000,32.600333
271154,58,1,2024-03-13T15:45:42.282Z,male_vraiment_flat_30.wav,1,False,1875,69,F,1,0.071043,42.125884
271154,58,1,2024-03-13T15:45:42.282Z,male_vraiment_flat_30.wav,1,False,1875,69,F,2,0.142086,124.172285
271154,58,1,2024-03-13T15:45:42.282Z,male_vraiment_flat_30.wav,1,False,1875,69,F,3,0.213129,52.679052
271154,58,1,2024-03-13T15:45:42.282Z,male_vraiment_flat_30.wav,1,False,1875,69,F,4,0.284172,-111.889461
271154,58,1,2024-03-13T15:45:42.282Z,male_vraiment_flat_30.wav,1,False,1875,69,F,5,0.355215,64.478579
271154,58,1,2024-03-13T15:45:42.282Z,male_vraiment_flat_30.wav,1,False,1875,69,F,6,0.426259,22.023880
271154,59,1,2024-03-13T15:45:42.282Z,male_vraiment_flat_79.wav,0,False,1512,69,F,0,0.000000,-102.946331
271154,59,1,2024-03-13T15:45:42.282Z,male_vraiment_flat_79.wav,0,False,1512,69,F,1,0.071043,143.002978
271154,59,1,2024-03-13T15:45:42.282Z,male_vraiment_flat_79.wav,0,False,1512,69,F,2,0.142086,-77.255333
271154,59,1,2024-03-13T15:45:42.282Z,male_vraiment_flat_79.wav,0,False,1512,69,F,3,0.213129,139.308503
271154,59,1,2024-03-13T15:45:42.282Z,male_vraiment_flat_79.wav,0,False,1512,69,F,4,0.284172,53.797207
271154,59,1,2024-03-13T15:45:42.282Z,male_vraiment_flat_79.wav,0,False,1512,69,F,5,0.355215,-97.855801
271154,59,1,2024-03-13T15:45:42.282Z,male_vraiment_flat_79.wav,0,False,1512,69,F,6,0.426259,15.451057
271154,59,1,2024-03-13T15:45:42.282Z,male_vraiment_flat_91.wav,1,True,1512,69,F,0,0.000000,58.982225
271154,59,1,2024-03-13T15:45:42.282Z,male_vraiment_flat_91.wav,1,True,1512,69,F,1,0.071043,126.482844
271154,59,1,2024-03-13T15:45:42.282Z,male_vraiment_flat_91.wav,1,True,1512,69,F,2,0.142086,-120.324305
271154,59,1,2024-03-13T15:45:42.282Z,male_vraiment_flat_91.wav,1,True,1512,69,F,3,0.213129,54.493295
271154,59,1,2024-03-13T15:45:42.282Z,male_vraiment_flat_91.wav,1,True,1512,69,F,4,0.284172,74.680181
271154,59,1,2024-03-13T15:45:42.282Z,male_vraiment_flat_91.wav,1,True,1512,69,F,5,0.355215,99.124880
271154,59,1,2024-03-13T15:45:42.282Z,male_vraiment_flat_91.wav,1,True,1512,69,F,6,0.426259,-32.505202
271154,60,1,2024-03-13T15:45:42.282Z,male_vraiment_flat_108.wav,0,True,2585,69,F,0,0.000000,92.203113
271154,60,1,2024-03-13T15:45:42.282Z,male_vraiment_flat_108.wav,0,True,2585,69,F,1,0.071043,-74.681876
271154,60,1,2024-03-13T15:45:42.282Z,male_vraiment_flat_108.wav,0,True,2585,69,F,2,0.142086,-18.773488
271154,60,1,2024-03-13T15:45:42.282Z,male_vraiment_flat_108.wav,0,True,2585,69,F,3,0.213129,73.054230
271154,60,1,2024-03-13T15:45:42.282Z,male_vraiment_flat_108.wav,0,True,2585,69,F,4,0.284172,-72.824646
271154,60,1,2024-03-13T15:45:42.282Z,male_vraiment_flat_108.wav,0,True,2585,69,F,5,0.355215,140.895697
271154,60,1,2024-03-13T15:45:42.282Z,male_vraiment_flat_108.wav,0,True,2585,69,F,6,0.426259,13.161932
271154,60,1,2024-03-13T15:45:42.282Z,male_vraiment_flat_113.wav,1,False,2585,69,F,0,0.000000,52.176539
271154,60,1,2024-03-13T15:45:42.282Z,male_vraiment_flat_113.wav,1,False,2585,69,F,1,0.071043,52.904766
271154,60,1,2024-03-13T15:45:42.282Z,male_vraiment_flat_113.wav,1,False,2585,69,F,2,0.142086,-138.473207
271154,60,1,2024-03-13T15:45:42.282Z,male_vraiment_flat_113.wav,1,False,2585,69,F,3,0.213129,-65.217652
271154,60,1,2024-03-13T15:45:42.282Z,male_vraiment_flat_113.wav,1,False,2585,69,F,4,0.284172,3.928053
271154,60,1,2024-03-13T15:45:42.282Z,male_vraiment_flat_113.wav,1,False,2585,69,F,5,0.355215,69.229623
271154,60,1,2024-03-13T15:45:42.282Z,male_vraiment_flat_113.wav,1,False,2585,69,F,6,0.426259,-85.157528
271154,61,1,2024-03-13T15:45:42.282Z,male_vraiment_flat_199.wav,0,False,1229,69,F,0,0.000000,-30.664010
271154,61,1,2024-03-13T15:45:42.282Z,male_vraiment_flat_199.wav,0,False,1229,69,F,1,0.071043,2.060872
271154,61,1,2024-03-13T15:45:42.282Z,male_vraiment_flat_199.wav,0,False,1229,69,F,2,0.142086,-136.256691
271154,61,1,2024-03-13T15:45:42.282Z,male_vraiment_flat_199.wav,0,False,1229,69,F,3,0.213129,20.654546
271154,61,1,2024-03-13T15:45:42.282Z,male_vraiment_flat_199.wav,0,False,1229,69,F,4,0.284172,41.179386
271154,61,1,2024-03-13T15:45:42.282Z,male_vraiment_flat_199.wav,0,False,1229,69,F,5,0.355215,1.343346
271154,61,1,2024-03-13T15:45:42.282Z,male_vraiment_flat_199.wav,0,False,1229,69,F,6,0.426259,140.228288
271154,61,1,2024-03-13T15:45:42.282Z,male_vraiment_flat_50.wav,1,True,1229,69,F,0,0.000000,96.336182
271154,61,1,2024-03-13T15:45:42.282Z,male_vraiment_flat_50.wav,1,True,1229,69,F,1,0.071043,-104.561128
271154,61,1,2024-03-13T15:45:42.282Z,male_vraiment_flat_50.wav,1,True,1229,69,F,2,0.142086,-130.066913
271154,61,1,2024-03-13T15:45:42.282Z,male_vraiment_flat_50.wav,1,True,1229,69,F,3,0.213129,-24.308766
271154,61,1,2024-03-13T15:45:42.282Z,male_vraiment_flat_50.wav,1,True,1229,69,F,4,0.284172,40.127472
271154,61,1,2024-03-13T15:45:42.282Z,male_vraiment_flat_50.wav,1,True,1229,69,F,5,0.355215,49.388454
271154,61,1,2024-03-13T15:45:42.282Z,male_vraiment_flat_50.wav,1,True,1229,69,F,6,0.426259,116.704022
271154,62,1,2024-03-13T15:45:42.282Z,male_vraiment_flat_57.wav,0,False,876,69,F,0,0.000000,-38.971396
271154,62,1,2024-03-13T15:45:42.282Z,male_vraiment_flat_57.wav,0,False,876,69,F,1,0.071043,127.210639
271154,62,1,2024-03-13T15:45:42.282Z,male_vraiment_flat_57.wav,0,False,876,69,F,2,0.142086,-100.465383
271154,62,1,2024-03-13T15:45:42.282Z,male_vraiment_flat_57.wav,0,False,876,69,F,3,0.213129,-139.526819
271154,62,1,2024-03-13T15:45:42.282Z,male_vraiment_flat_57.wav,0,False,876,69,F,4,0.284172,-149.467980
271154,62,1,2024-03-13T15:45:42.282Z,male_vraiment_flat_57.wav,0,False,876,69,F,5,0.355215,-50.432071
271154,62,1,2024-03-13T15:45:42.282Z,male_vraiment_flat_57.wav,0,False,876,69,F,6,0.426259,15.305878
271154,62,1,2024-03-13T15:45:42.282Z,male_vraiment_flat_75.wav,1,True,876,69,F,0,0.000000,-102.776376
271154,62,1,2024-03-13T15:45:42.282Z,male_vraiment_flat_75.wav,1,True,876,69,F,1,0.071043,141.116849
271154,62,1,2024-03-13T15:45:42.282Z,male_vraiment_flat_75.wav,1,True,876,69,F,2,0.142086,12.209007
271154,62,1,2024-03-13T15:45:42.282Z,male_vraiment_flat_75.wav,1,True,876,69,F,3,0.213129,-138.758513
271154,62,1,2024-03-13T15:45:42.282Z,male_vraiment_flat_75.wav,1,True,876,69,F,4,0.284172,4.940697
271154,62,1,2024-03-13T15:45:42.282Z,male_vraiment_flat_75.wav,1,True,876,69,F,5,0.355215,67.499606
271154,62,1,2024-03-13T15:45:42.282Z,male_vraiment_flat_75.wav,1,True,876,69,F,6,0.426259,61.725226
271154,63,1,2024-03-13T15:45:42.282Z,male_vraiment_flat_41.wav,0,True,1753,69,F,0,0.000000,-40.071689
271154,63,1,2024-03-13T15:45:42.282Z,male_vraiment_flat_41.wav,0,True,1753,69,F,1,0.071043,-31.963638
271154,63,1,2024-03-13T15:45:42.282Z,male_vraiment_flat_41.wav,0,True,1753,69,F,2,0.142086,-69.463296
271154,63,1,2024-03-13T15:45:42.282Z,male_vraiment_flat_41.wav,0,True,1753,69,F,3,0.213129,-118.841278
271154,63,1,2024-03-13T15:45:42.282Z,male_vraiment_flat_41.wav,0,True,1753,69,F,4,0.284172,80.615651
271154,63,1,2024-03-13T15:45:42.282Z,male_vraiment_flat_41.wav,0,True,1753,69,F,5,0.355215,-132.443518
271154,63,1,2024-03-13T15:45:42.282Z,male_vraiment_flat_41.wav,0,True,1753,69,F,6,0.426259,21.803113
271154,63,1,2024-03-13T15:45:42.282Z,male_vraiment_flat_120.wav,1,False,1753,69,F,0,0.000000,20.081065
271154,63,1,2024-03-13T15:45:42.282Z,male_vraiment_flat_120.wav,1,False,1753,69,F,1,0.071043,100.844988
271154,63,1,2024-03-13T15:45:42.282Z,male_vraiment_flat_120.wav,1,False,1753,69,F,2,0.142086,-34.199178
271154,63,1,2024-03-13T15:45:42.282Z,male_vraiment_flat_120.wav,1,False,1753,69,F,3,0.213129,-3.979999
271154,63,1,2024-03-13T15:45:42.282Z,male_vraiment_flat_120.wav,1,False,1753,69,F,4,0.284172,-132.448085
271154,63,1,2024-03-13T15:45:42.282Z,male_vraiment_flat_120.wav,1,False,1753,69,F,5,0.355215,-95.704719
271154,63,1,2024-03-13T15:45:42.282Z,male_vraiment_flat_120.wav,1,False,1753,69,F,6,0.426259,-2.125632
271154,64,1,2024-03-13T15:45:42.282Z,male_vraiment_flat_103.wav,0,False,840,69,F,0,0.000000,107.674069
271154,64,1,2024-03-13T15:45:42.282Z,male_vraiment_flat_103.wav,0,False,840,69,F,1,0.071043,149.413476
271154,64,1,2024-03-13T15:45:42.282Z,male_vraiment_flat_103.wav,0,False,840,69,F,2,0.142086,-1.049319
271154,64,1,2024-03-13T15:45:42.282Z,male_vraiment_flat_103.wav,0,False,840,69,F,3,0.213129,-7.353867
271154,64,1,2024-03-13T15:45:42.282Z,male_vraiment_flat_103.wav,0,False,840,69,F,4,0.284172,-2.169492
271154,64,1,2024-03-13T15:45:42.282Z,male_vraiment_flat_103.wav,0,False,840,69,F,5,0.355215,-94.854916
271154,64,1,2024-03-13T15:45:42.282Z,male_vraiment_flat_103.wav,0,False,840,69,F,6,0.426259,119.487430
271154,64,1,2024-03-13T15:45:42.282Z,male_vraiment_flat_99.wav,1,True,840,69,F,0,0.000000,-67.009894
271154,64,1,2024-03-13T15:45:42.282Z,male_vraiment_flat_99.wav,1,True,840,69,F,1,0.071043,-124.385437
271154,64,1,2024-03-13T15:45:42.282Z,male_vraiment_flat_99.wav,1,True,840,69,F,2,0.142086,-32.338754
271154,64,1,2024-03-13T15:45:42.282Z,male_vraiment_flat_99.wav,1,True,840,69,F,3,0.213129,-145.840775
271154,64,1,2024-03-13T15:45:42.282Z,male_vraiment_flat_99.wav,1,True,840,69,F,4,0.284172,-6.786611
271154,64,1,2024-03-13T15:45:42.282Z,male_vraiment_flat_99.wav,1,True,840,69,F,5,0.355215,89.278278
271154,64,1,2024-03-13T15:45:42.282Z,male_vraiment_flat_99.wav,1,True,840,69,F,6,0.426259,-47.823672
271154,65,1,2024-03-13T15:45:42.282Z,male_vraiment_flat_104.wav,0,True,1907,69,F,0,0.000000,-70.174686
271154,65,1,2024-03-13T15:45:42.282Z,male_vraiment_flat_104.wav,0,True,1907,69,F,1,0.071043,-64.753986
271154,65,1,2024-03-13T15:45:42.282Z,male_vraiment_flat_104.wav,0,True,1907,69,F,2,0.142086,-116.293490
271154,65,1,2024-03-13T15:45:42.282Z,male_vraiment_flat_104.wav,0,True,1907,69,F,3,0.213129,-63.059369
271154,65,1,2024-03-13T15:45:42.282Z,male_vraiment_flat_104.wav,0,True,1907,69,F,4,0.284172,102.899256
271154,65,1,2024-03-13T15:45:42.282Z,male_vraiment_flat_104.wav,0,True,1907,69,F,5,0.355215,-142.936640
271154,65,1,2024-03-13T15:45:42.282Z,male_vraiment_flat_104.wav,0,True,1907,69,F,6,0.426259,-16.173865
271154,65,1,2024-03-13T15:45:42.282Z,male_vraiment_flat_89.wav,1,False,1907,69,F,0,0.000000,109.966045
271154,65,1,2024-03-13T15:45:42.282Z,male_vraiment_flat_89.wav,1,False,1907,69,F,1,0.071043,3.952874
271154,65,1,2024-03-13T15:45:42.282Z,male_vraiment_flat_89.wav,1,False,1907,69,F,2,0.142086,14.687736
271154,65,1,2024-03-13T15:45:42.282Z,male_vraiment_flat_89.wav,1,False,1907,69,F,3,0.213129,-59.041416
271154,65,1,2024-03-13T15:45:42.282Z,male_vraiment_flat_89.wav,1,False,1907,69,F,4,0.284172,-42.151762
271154,65,1,2024-03-13T15:45:42.282Z,male_vraiment_flat_89.wav,1,False,1907,69,F,5,0.355215,-148.779325
271154,65,1,2024-03-13T15:45:42.282Z,male_vraiment_flat_89.wav,1,False,1907,69,F,6,0.426259,-61.315288
271154,66,1,2024-03-13T15:45:42.282Z,male_vraiment_flat_137.wav,0,True,1197,69,F,0,0.000000,80.130674
271154,66,1,2024-03-13T15:45:42.282Z,male_vraiment_flat_137.wav,0,True,1197,69,F,1,0.071043,138.574149
271154,66,1,2024-03-13T15:45:42.282Z,male_vraiment_flat_137.wav,0,True,1197,69,F,2,0.142086,75.493630
271154,66,1,2024-03-13T15:45:42.282Z,male_vraiment_flat_137.wav,0,True,1197,69,F,3,0.213129,-91.745449
271154,66,1,2024-03-13T15:45:42.282Z,male_vraiment_flat_137.wav,0,True,1197,69,F,4,0.284172,67.674634
271154,66,1,2024-03-13T15:45:42.282Z,male_vraiment_flat_137.wav,0,True,1197,69,F,5,0.355215,136.412365
271154,66,1,2024-03-13T15:45:42.282Z,male_vraiment_flat_137.wav,0,True,1197,69,F,6,0.426259,13.296001
271154,66,1,2024-03-13T15:45:42.282Z,male_vraiment_flat_114.wav,1,False,1197,69,F,0,0.000000,-107.614700
271154,66,1,2024-03-13T15:45:42.282Z,male_vraiment_flat_114.wav,1,False,1197,69,F,1,0.071043,-121.606705
271154,66,1,2024-03-13T15:45:42.282Z,male_vraiment_flat_114.wav,1,False,1197,69,F,2,0.142086,26.820871
271154,66,1,2024-03-13T15:45:42.282Z,male_vraiment_flat_114.wav,1,False,1197,69,F,3,0.213129,42.957584
271154,66,1,2024-03-13T15:45:42.282Z,male_vraiment_flat_114.wav,1,False,1197,69,F,4,0.284172,-48.053802
271154,66,1,2024-03-13T15:45:42.282Z,male_vraiment_flat_114.wav,1,False,1197,69,F,5,0.355215,-10.474627
271154,66,1,2024-03-13T15:45:42.282Z,male_vraiment_flat_114.wav,1,False,1197,69,F,6,0.426259,-131.069216
271154,67,1,2024-03-13T15:45:42.282Z,male_vraiment_flat_140.wav,0,False,3303,69,F,0,0.000000,-149.304179
271154,67,1,2024-03-13T15:45:42.282Z,male_vraiment_flat_140.wav,0,False,3303,69,F,1,0.071043,148.600586
271154,67,1,2024-03-13T15:45:42.282Z,male_vraiment_flat_140.wav,0,False,3303,69,F,2,0.142086,-115.715849
271154,67,1,2024-03-13T15:45:42.282Z,male_vraiment_flat_140.wav,0,False,3303,69,F,3,0.213129,139.265939
271154,67,1,2024-03-13T15:45:42.282Z,male_vraiment_flat_140.wav,0,False,3303,69,F,4,0.284172,45.121427
271154,67,1,2024-03-13T15:45:42.282Z,male_vraiment_flat_140.wav,0,False,3303,69,F,5,0.355215,-93.318951
271154,67,1,2024-03-13T15:45:42.282Z,male_vraiment_flat_140.wav,0,False,3303,69,F,6,0.426259,-66.215565
271154,67,1,2024-03-13T15:45:42.282Z,male_vraiment_flat_67.wav,1,True,3303,69,F,0,0.000000,3.293259
271154,67,1,2024-03-13T15:45:42.282Z,male_vraiment_flat_67.wav,1,True,3303,69,F,1,0.071043,-46.547477
271154,67,1,2024-03-13T15:45:42.282Z,male_vraiment_flat_67.wav,1,True,3303,69,F,2,0.142086,54.624069
271154,67,1,2024-03-13T15:45:42.282Z,male_vraiment_flat_67.wav,1,True,3303,69,F,3,0.213129,-46.025939
271154,67,1,2024-03-13T15:45:42.282Z,male_vraiment_flat_67.wav,1,True,3303,69,F,4,0.284172,70.704507
271154,67,1,2024-03-13T15:45:42.282Z,male_vraiment_flat_67.wav,1,True,3303,69,F,5,0.355215,-47.199237
271154,67,1,2024-03-13T15:45:42.282Z,male_vraiment_flat_67.wav,1,True,3303,69,F,6,0.426259,147.575842
271154,68,1,2024-03-13T15:45:42.282Z,male_vraiment_flat_3.wav,0,False,878,69,F,0,0.000000,139.821339
271154,68,1,2024-03-13T15:45:42.282Z,male_vraiment_flat_3.wav,0,False,878,69,F,1,0.071043,-90.088416
271154,68,1,2024-03-13T15:45:42.282Z,male_vraiment_flat_3.wav,0,False,878,69,F,2,0.142086,-144.376143
271154,68,1,2024-03-13T15:45:42.282Z,male_vraiment_flat_3.wav,0,False,878,69,F,3,0.213129,-83.117215
271154,68,1,2024-03-13T15:45:42.282Z,male_vraiment_flat_3.wav,0,False,878,69,F,4,0.284172,-15.266959
271154,68,1,2024-03-13T15:45:42.282Z,male_vraiment_flat_3.wav,0,False,878,69,F,5,0.355215,-78.645111
271154,68,1,2024-03-13T15:45:42.282Z,male_vraiment_flat_3.wav,0,False,878,69,F,6,0.426259,18.566710
271154,68,1,2024-03-13T15:45:42.282Z,male_vraiment_flat_181.wav,1,True,878,69,F,0,0.000000,87.984579
271154,68,1,2024-03-13T15:45:42.282Z,male_vraiment_flat_181.wav,1,True,878,69,F,1,0.071043,-52.749156
271154,68,1,2024-03-13T15:45:42.282Z,male_vraiment_flat_181.wav,1,True,878,69,F,2,0.142086,-81.744540
271154,68,1,2024-03-13T15:45:42.282Z,male_vraiment_flat_181.wav,1,True,878,69,F,3,0.213129,-103.539742
271154,68,1,2024-03-13T15:45:42.282Z,male_vraiment_flat_181.wav,1,True,878,69,F,4,0.284172,51.143910
271154,68,1,2024-03-13T15:45:42.282Z,male_vraiment_flat_181.wav,1,True,878,69,F,5,0.355215,89.293467
271154,68,1,2024-03-13T15:45:42.282Z,male_vraiment_flat_181.wav,1,True,878,69,F,6,0.426259,-33.289981
271154,69,1,2024-03-13T15:45:42.282Z,male_vraiment_flat_83.wav,0,False,911,69,F,0,0.000000,-23.907946
271154,69,1,2024-03-13T15:45:42.282Z,male_vraiment_flat_83.wav,0,False,911,69,F,1,0.071043,-0.791729
271154,69,1,2024-03-13T15:45:42.282Z,male_vraiment_flat_83.wav,0,False,911,69,F,2,0.142086,23.610634
271154,69,1,2024-03-13T15:45:42.282Z,male_vraiment_flat_83.wav,0,False,911,69,F,3,0.213129,-35.411923
271154,69,1,2024-03-13T15:45:42.282Z,male_vraiment_flat_83.wav,0,False,911,69,F,4,0.284172,101.109402
271154,69,1,2024-03-13T15:45:42.282Z,male_vraiment_flat_83.wav,0,False,911,69,F,5,0.355215,-51.929212
271154,69,1,2024-03-13T15:45:42.282Z,male_vraiment_flat_83.wav,0,False,911,69,F,6,0.426259,-104.958378
271154,69,1,2024-03-13T15:45:42.282Z,male_vraiment_flat_196.wav,1,True,911,69,F,0,0.000000,-42.342747
271154,69,1,2024-03-13T15:45:42.282Z,male_vraiment_flat_196.wav,1,True,911,69,F,1,0.071043,-81.868734
271154,69,1,2024-03-13T15:45:42.282Z,male_vraiment_flat_196.wav,1,True,911,69,F,2,0.142086,-18.906552
271154,69,1,2024-03-13T15:45:42.282Z,male_vraiment_flat_196.wav,1,True,911,69,F,3,0.213129,-18.852092
271154,69,1,2024-03-13T15:45:42.282Z,male_vraiment_flat_196.wav,1,True,911,69,F,4,0.284172,52.116670
